loggingTime(txt),motionUserAccelerationX(G),motionUserAccelerationY(G),motionUserAccelerationZ(G),motionGravityX(G),motionGravityY(G),motionGravityZ(G)
2026-03-24 18:43:08.900000-06:00,0.027480525969622655,0.10369839853568752,0.00017096148022005477,0.005886474994009169,-0.03501239465056875,0.9982770304436276
2026-03-24 18:43:09-06:00,0.0664045877032422,-0.07909050491248286,0.007653006276353291,-0.012419584669586457,0.01077050164939098,0.822800920395854
2026-03-24 18:43:09.100000-06:00,0.03848996548260619,0.06856465765577441,-0.04137209546583186,-0.004512966201506122,-0.019581657344760955,0.9767461528656575
2026-03-24 18:43:09.200000-06:00,-0.009554489045698583,0.062203596539083174,-0.012554777625386855,0.004064488892741151,-0.09672959675322358,1.0519947494812194
2026-03-24 18:43:09.300000-06:00,-0.0006615394655667328,-0.013704484202046572,-0.01976209714836361,-0.009037460702686443,-0.024908518199385114,1.0027161130457394
2026-03-24 18:43:09.400000-06:00,0.009275645607827341,0.03577673619431712,-0.033366371798728416,-0.010617645679207477,-0.05389373639316178,1.015100348233087
2026-03-24 18:43:09.500000-06:00,0.0053683383214451425,-0.006054781806223329,0.007820369851070447,0.011650662050751277,-0.004437218010227753,1.0056946429208753
2026-03-24 18:43:09.600000-06:00,0.0028107223159794634,-0.012462585082571523,-0.00604501537222191,-0.0032987223261766257,-0.0038244150652873296,1.0155340865637092
2026-03-24 18:43:09.700000-06:00,0.002915841801226719,0.010128059021174408,0.004927055620420837,0.0011101582089704434,-0.0024420592149204876,0.9912639984092427
2026-03-24 18:43:09.800000-06:00,0.011222018732186834,0.0007865342089296549,-0.004224343685152422,-0.010124018701595346,-0.0023725342191268173,0.9978533607297091
2026-03-24 18:43:09.900000-06:00,0.006184778492145636,0.014006798447991924,-0.005030721602178114,-0.00026777829330097426,-0.012664798376611788,1.003051758347652
2026-03-24 18:43:10-06:00,-0.003382308229619697,0.022583675363146438,-0.001782453437208425,0.007408308239816859,-0.00464967547531522,0.998522420704318
2026-03-24 18:43:10.100000-06:00,-0.002657340988003039,0.014604281788378295,0.002303117680349559,0.008147341140960471,0.0008897176915664386,1.0002929268404603
2026-03-24 18:43:10.200000-06:00,0.005813251212187649,-0.013103182024442599,-0.002113484625228799,0.0058987482983485695,0.0075521821417099625,1.0034894896830215
2026-03-24 18:43:10.300000-06:00,-0.0027499321378860265,-0.023028916092651418,-0.006503052010625443,0.012509932749715754,-0.006434085034134998,1.001779114682384
2026-03-24 18:43:10.400000-06:00,0.014844729851682278,-0.03915248938220493,-0.0028931194648529317,0.013398270561302791,0.018473488908036895,0.9988401554047509
2026-03-24 18:43:10.500000-06:00,0.015026855246184986,-0.017737296630347774,-0.004201295855363453,0.009739145375841904,-0.013250703349257905,1.0082612959573352
2026-03-24 18:43:10.600000-06:00,-0.005549961709656203,-0.035939100508328534,-3.423119617810363e-05,0.012808961979881,-0.0018198997618962638,0.9966522404042156
2026-03-24 18:43:10.700000-06:00,-0.001847125369009805,-0.0057282878454926,0.0011526772139313628,0.015023125328221159,-0.012022712751041387,0.9942453435168994
2026-03-24 18:43:10.800000-06:00,0.0038978417706352323,-0.0233093737412878,-0.009786912962122642,0.014097158560772538,-0.00273762803811699,1.0026839777090035
2026-03-24 18:43:10.900000-06:00,0.0022278479399183205,-0.025637184971422453,-0.009705127642976959,0.007532152671911408,-0.0013248153039009248,0.9986982088684718
2026-03-24 18:43:11-06:00,0.0044637057506895835,0.0032933197371171606,0.014107045729173573,0.014629294407366428,0.00439268006913676,0.9840359490753724
2026-03-24 18:43:11.100000-06:00,0.005750661642864791,-0.02980006118297278,-0.0008802863363126043,0.017124338484599735,0.00027606165204223664,1.0020122733043395
2026-03-24 18:43:11.200000-06:00,0.04025569180097179,-0.07610944614113892,0.003326260853604442,0.007263308061366519,-0.0051425512279932506,0.9832267414458556
2026-03-24 18:43:11.300000-06:00,-0.135163118904009,0.061239485451198936,0.0018672533433945337,0.07080811490162288,0.14603853507568848,0.9695577490784315
2026-03-24 18:43:11.400000-06:00,0.024159024743413908,0.15767983970061134,-0.06032159096123549,0.0505049736658288,0.025930169833735264,1.0222306016835514
2026-03-24 18:43:11.500000-06:00,-0.019485154461513363,0.20821993239281508,0.015573443530665417,-0.003999845003135627,0.04523505988283465,0.9969046198243028
2026-03-24 18:43:11.600000-06:00,-0.03098494592954781,0.302499253057874,0.0020468699300984538,0.016527945832674768,0.030621741369376912,0.9977431705016495
2026-03-24 18:43:11.700000-06:00,-0.00748497601117609,0.2709369662422948,0.023138927156572328,-0.0019090239786267486,-0.1199009651613956,1.040335042037801
2026-03-24 18:43:11.800000-06:00,-0.03872065180260334,0.2969211504438315,0.03699886607557117,0.006024650619732528,0.08756184833760762,1.0684431554098495
2026-03-24 18:43:11.900000-06:00,-0.017312773475141867,-0.06658312879525628,-0.041502699698673866,0.02274177349043761,0.02065012720959757,1.0049366960174984
2026-03-24 18:43:12-06:00,-0.0178254969841893,-0.17595541800716863,0.02473203897355366,0.04661749731049849,0.03547240902856737,0.9859160416656046
2026-03-24 18:43:12.100000-06:00,-0.018056026267889647,-0.33610390908210247,-0.0753503489978739,0.002318026033354917,0.0010918917265325106,1.0154823002758333
2026-03-24 18:43:12.200000-06:00,0.029218142790861306,0.337509312558315,-0.03754248086757456,0.06179386436754652,-0.44840731544411194,1.0740545415610836
2026-03-24 18:43:12.300000-06:00,-0.010441600342624648,0.12823828728464867,-0.04520443372609403,0.035512601143101875,0.029141715060698622,0.9919854445707762
2026-03-24 18:43:12.400000-06:00,0.014536326880229232,0.4366689440328757,-0.012702107753412226,0.04756167804500008,0.04175406484375397,1.0518980615194793
2026-03-24 18:43:12.500000-06:00,0.1242402451397776,-0.1828842367169217,-0.0020947158305843487,0.03179775968348009,-0.012437764170231425,0.9960287299944427
2026-03-24 18:43:12.600000-06:00,0.12850108854705738,0.36094938638576884,0.09290229895020216,0.0036249075882181796,-0.1680673828473536,0.8513166749093728
2026-03-24 18:43:12.700000-06:00,0.018198137998195103,-0.18781189295019196,-0.026331570923811908,0.018889861471552468,0.0181098846191105,1.011847623806295
2026-03-24 18:43:12.800000-06:00,0.15215958558733106,-0.08440098300642931,0.3205357588982986,-0.1284915847919524,-0.5489010416401116,0.7638002783825262
2026-03-24 18:43:12.900000-06:00,-0.04947239577225659,-0.26672115350298015,-0.05485004563230054,0.020680395445947398,0.10714515150433637,0.9871740298674878
2026-03-24 18:43:13-06:00,-0.08874849209465006,0.3675534050873642,0.129823364757588,0.005666491615383444,0.2223166320812918,0.9543906124925434
2026-03-24 18:43:13.100000-06:00,-0.015633619023825672,0.1412793053693157,-0.23424635323989337,0.008374618753600873,0.07020770599542148,1.016083371997573
2026-03-24 18:43:13.200000-06:00,-0.00048679015769911236,-0.0461894632723713,-0.03497125114080751,-0.03898021131579082,0.028499462099697656,0.9367342385014251
2026-03-24 18:43:13.300000-06:00,-0.036533936665426016,-0.069239097959038,-0.008251274390337168,0.058310936966242295,0.015742093375413622,1.0203022805953106
2026-03-24 18:43:13.400000-06:00,-0.058827708748655255,-0.9826098616754957,0.08507123227605758,0.09024270775443195,0.6984718532832312,1.0344617886842093
2026-03-24 18:43:13.500000-06:00,0.33203788245731214,-0.19420354555327254,0.16121482871316914,-0.19814287243860032,-0.004900460401870167,0.9104941646739712
2026-03-24 18:43:13.600000-06:00,-0.14315159611080236,0.53320970973778,-0.04449287269352939,-0.0152044072134725,0.060808329042027556,1.1143718833648597
2026-03-24 18:43:13.700000-06:00,-0.14288247260787323,0.5092786017651287,0.06587715886668741,0.07773447099672161,0.17044444331142647,1.2438537890105184
2026-03-24 18:43:13.800000-06:00,0.05775545471695227,-0.014814756313318005,-0.1102674307740156,0.013675543636206045,0.017925756298022264,1.0083094736734768
2026-03-24 18:43:13.900000-06:00,-0.03986591139685826,-0.2350800732156241,-0.04925946882982467,0.09574191390536015,-0.05710992030917796,1.1064504565779345
2026-03-24 18:43:14-06:00,0.039045104087532444,-0.9675229563612446,-0.011834658114646695,-0.09626310717727256,0.23405892939994796,0.8119106779583243
2026-03-24 18:43:14.100000-06:00,0.09626254633335543,0.28863256055839664,-0.27568113474020184,0.11607844676826438,0.3090454436530314,1.1298641636032694
2026-03-24 18:43:14.200000-06:00,-0.009322646367515921,-0.11282685728561742,-0.41645469145936687,-0.12487735057333546,0.391535865968501,0.8704776860599696
2026-03-24 18:43:14.300000-06:00,0.08266349874829836,-0.07013736291190162,-0.014744990389174694,-0.029532500904998142,-0.0762016417431029,1.020024978968353
2026-03-24 18:43:14.400000-06:00,0.0521651532378539,0.02816598328685127,-0.14474019160467644,0.033478849556168526,-0.041951983602963296,0.9924571999612508
2026-03-24 18:43:14.500000-06:00,0.1925606807625438,0.1418222430697537,0.005480395038060908,0.3289283496402951,-1.1019012710762595,1.0662285983490796
2026-03-24 18:43:14.600000-06:00,0.858155180413291,0.20545585903443073,0.041467884547730365,-0.03733910152804476,-0.1362818566992806,1.070806133593021
2026-03-24 18:43:14.700000-06:00,0.0016864318600133582,0.07267833561919718,-0.04359624846405245,0.007524568838492249,0.09049667317585516,0.8068892486221085
2026-03-24 18:43:14.800000-06:00,-0.05117647718639903,0.014667832542203506,0.05977282252349171,0.05221347718130045,-0.008018832119021277,0.9538642502791473
2026-03-24 18:43:14.900000-06:00,-0.19846626523838418,-0.04989986692703421,-0.1553981532939383,0.005584261699968905,0.14579186878291772,0.9683451535437688
2026-03-24 18:43:15-06:00,-0.25599805234203327,-0.7620175493160254,0.22195954785783117,0.06860605813402132,-0.13773241626855243,1.0839894765286822
2026-03-24 18:43:15.100000-06:00,0.1309212218239664,-0.11764807554057706,-0.15884053168003345,-0.16477622123762958,1.0153851213207366,0.7891535335716071
2026-03-24 18:43:15.200000-06:00,0.48276339014852165,0.6253513381226006,0.2995920115431876,0.19580064548036286,0.23291871332208236,0.8693510016162502
2026-03-24 18:43:15.300000-06:00,-0.013311143968633529,0.5337181402415708,0.3319115090270378,-0.23068886622852863,-0.2548871327109666,0.7793864367546514
2026-03-24 18:43:15.400000-06:00,-0.018595664166662418,0.14057199961250785,-0.09080087491651075,0.00401666318263627,0.040537002952078426,0.9929909194271236
2026-03-24 18:43:15.500000-06:00,-0.22769614496285684,-0.20781602280085454,-0.0068157036296798605,0.07293914843499054,-0.10224699566110752,1.1087806967720883
2026-03-24 18:43:15.600000-06:00,-0.23149781015943263,-0.49683051806682205,-0.13639332493766984,0.1112058144218464,-0.046984495214981686,1.0484043582670943
2026-03-24 18:43:15.700000-06:00,1.595502541642661,-0.5464334609678126,1.1686921629710452,0.31330943798340927,0.1212024595555057,0.9685649023876656
2026-03-24 18:43:15.800000-06:00,-0.038678097005603346,0.6190891282955954,-0.27438112913176266,-0.06910890467182984,0.03391586321526723,1.13240716248668
2026-03-24 18:43:15.900000-06:00,-0.12310807462283246,-0.01619179944221523,-0.14039817878684363,0.19929707902290794,-0.1941361922776891,1.0297171613140064
2026-03-24 18:43:16-06:00,-0.09421594530242233,-0.1326406673022898,-0.02757177017635992,0.0004589436759749673,-0.017968327614424896,1.0576178103633758
2026-03-24 18:43:16.100000-06:00,-0.10456659511657905,-0.11385125399601291,-0.023829094542988687,0.005014597237588769,-0.04682274782927913,1.023070119765669
2026-03-24 18:43:16.200000-06:00,-0.04368667689781934,-0.07688470578637965,-0.014732639586403104,-0.048850326054259104,-0.004672298899216345,1.0197686100758159
2026-03-24 18:43:16.300000-06:00,-0.09920579402752215,-0.062144697730621576,-0.04871410420479981,0.005631790672655809,0.02682569786828326,0.986101081409044
2026-03-24 18:43:16.400000-06:00,-0.0860730483906329,-0.08620875120453977,-0.006613720281645619,0.04459304655514371,-0.02664125363911224,0.9924957493129664
2026-03-24 18:43:16.500000-06:00,-0.05770520004282808,-0.06619224709763273,0.02377881743510781,-0.02793880275119435,0.008974244007892613,0.9883331677994014
2026-03-24 18:43:16.600000-06:00,-0.12332770110078367,-0.03306182233484421,-0.02339566110751378,-0.007761294631703988,0.0015858208460585424,0.9811566702186781
2026-03-24 18:43:16.700000-06:00,-0.10890411098591261,0.0034227002085319654,-0.03702492900225868,-0.011326885327813273,0.029090298623892976,0.9979578673655123
2026-03-24 18:43:16.800000-06:00,-0.07487420270938598,-0.09692000326309189,-0.019380886439303944,-0.045661800920803734,0.09301600322230323,1.0339328486282267
2026-03-24 18:43:16.900000-06:00,-0.05185043822304253,-0.010819533683775806,0.015806060173453727,-0.009759561114141939,0.009355533744958778,0.9805070029010927
2026-03-24 18:43:17-06:00,0.07404282502179643,-0.0810393416712129,-0.04254937720832293,0.16727317993402435,0.03376433950431595,1.097361418017366
2026-03-24 18:43:17.100000-06:00,-0.04307235702304049,-0.3940368831354234,-0.021527143316015154,-0.059956648804637684,0.03303886648345763,1.0208902285693893
2026-03-24 18:43:17.200000-06:00,-0.17010082953913927,-0.33088330877516786,0.09313423544227642,-0.08054817904177265,-0.027247694166713406,0.8657857831165587
2026-03-24 18:43:17.300000-06:00,-0.7086838012980988,-0.05321212646520474,-1.0583228727445153,0.14132277587147496,0.44050112933570595,1.768545894877456
2026-03-24 18:43:17.400000-06:00,0.0717930536931572,0.1027357660363121,-0.11267256402543173,0.006347947566192332,-0.30928177308255117,1.133446528631082
2026-03-24 18:43:17.500000-06:00,0.3395509985571016,-0.13440191094818313,0.07311209740329266,-0.1022000071380135,0.0851139073995707,0.9957909428805963
2026-03-24 18:43:17.600000-06:00,0.10837147241922572,0.029850420887866908,0.0337083917545747,-0.05682646979345647,-0.09396142107651441,0.9340566452356308
2026-03-24 18:43:17.700000-06:00,0.10960407478598708,-0.08184890864872307,-0.040559493812871876,0.01538492757465596,0.0440289069152055,1.0069215032656413
2026-03-24 18:43:17.800000-06:00,0.018681244869552804,-0.08949769289206815,-0.04375709646005517,-0.014960244833862735,-0.012677310804403125,1.0303711797606725
2026-03-24 18:43:17.900000-06:00,-0.025000312033161172,-0.13168437743775907,-0.004383732467254363,0.008713311885302322,0.007549367011160788,0.9906927166769489
2026-03-24 18:43:18-06:00,-0.1224244670708142,-0.08853301994055056,0.018447210821228452,0.038122463838313796,-0.024255985479241123,0.9726198712098424
2026-03-24 18:43:18.100000-06:00,-0.20257970866707797,-0.05630631867151373,0.009333544074684015,0.031840699933208594,-0.0007286830874967514,1.0014974736530824
2026-03-24 18:43:18.200000-06:00,-0.1439416110496449,-0.13067761162068597,-0.017502351975445234,0.06012760728689207,0.021792610116604546,1.0076543406769898
2026-03-24 18:43:18.300000-06:00,0.024349399642079612,0.0032337479159549897,-0.011851481902586511,-0.009709398214476911,-0.028731749782035663,0.9954765730397233
2026-03-24 18:43:18.400000-06:00,-0.022636332488668406,-0.03105150076733645,-0.02977248601714143,0.02410033242748543,-0.024641503469584422,1.0032714892445431
2026-03-24 18:43:18.500000-06:00,-0.09509084141883314,-0.031634949753483604,0.019749357833714877,-0.008609168268470893,-0.01679905166392193,1.0074906272784285
2026-03-24 18:43:18.600000-06:00,-0.04442634844722714,0.002213035848123467,-0.009288421122401636,-0.004739653194515962,-0.055527036041869544,1.0196314026706368
2026-03-24 18:43:18.700000-06:00,-0.07320704827846411,-0.014389677412776023,-0.02237854721031137,0.0011050460656799306,-0.05069732579423147,1.0441895632045601
2026-03-24 18:43:18.800000-06:00,-0.48862747217449387,-0.23094726537604587,0.18177396970423132,-0.04164555684153101,-0.3338517638541194,1.3223640386880333
2026-03-24 18:43:18.900000-06:00,-0.1974428066669046,-0.1747117517194965,-0.08291661270668374,0.21702380731442442,-0.2067822650956239,1.0250615857606828
2026-03-24 18:43:19-06:00,0.09480278688441007,-0.1698300846874315,0.7026834851860728,-0.7122447777783443,-0.11876092243528627,0.8072495194587346
2026-03-24 18:43:19.100000-06:00,0.6081356732421368,-0.19397775998939495,-0.04290929114427455,-0.3047826831792712,0.6412907567823876,0.19669028669321328
2026-03-24 18:43:19.200000-06:00,0.0686576251829116,-0.07856149653551417,-0.09980747044097628,-0.07097562521350309,-0.24827651644547322,0.9587484951537989
2026-03-24 18:43:19.300000-06:00,0.9135390780745719,-0.20829656406622038,0.6872793461579643,-0.4717770798386809,0.3126675674159881,1.5231778436061245
2026-03-24 18:43:19.400000-06:00,0.5630125476080007,-0.5569197738269439,0.04059100202413669,-0.1092335303085151,-0.017700254419195136,0.9666410293015455
2026-03-24 18:43:19.500000-06:00,-0.10172067321664381,0.00952545058710161,-0.0978913013108452,-0.012898325116120183,-0.11895944690592611,1.0022163256565697
2026-03-24 18:43:19.600000-06:00,-0.03197149077411757,0.16754639963698104,0.028240250238358668,0.11334549310926771,-0.2048174014571745,1.0431638480011014
2026-03-24 18:43:19.700000-06:00,0.16072578301458704,0.03190894546047835,0.12095642242763839,-0.016765786481622167,-0.08937094930480846,0.9611225749873811
2026-03-24 18:43:19.800000-06:00,-0.1049393319839089,0.17734389419424573,-0.0538451866845457,0.09341033176466991,-0.26115789795699856,0.9744572203555751
2026-03-24 18:43:19.900000-06:00,0.011389485706127985,0.06643933453319942,0.01797857474264912,0.008435514676265595,-0.07510133429866468,1.0242674521880561
2026-03-24 18:43:20-06:00,0.010388222889569834,0.03947989374557061,-0.01019340855439931,0.002787777069641518,-0.08059389291960048,0.9882674705429481
2026-03-24 18:43:20.100000-06:00,-0.0009687360107682033,0.06628995120657921,0.006097529023672712,0.0010297360117879194,-0.07324395180821179,0.9894224497662301
2026-03-24 18:43:20.200000-06:00,0.016129100151427857,0.050227327374791596,-0.00859387762385728,0.003390901072231598,-0.06797832797132558,1.0030769069967829
2026-03-24 18:43:20.300000-06:00,0.0077121602178113835,0.040902642594565934,0.004690549066194878,-0.0028321600138681404,-0.06694964437397073,0.999857487215308
2026-03-24 18:43:20.400000-06:00,0.01782117848602734,0.038468600388511874,-0.0026537928854399825,-0.010989178771547878,-0.07476359919034532,0.9963437889595327
2026-03-24 18:43:20.500000-06:00,0.007428677479057579,0.03569984347356131,0.008473485237058527,0.005198323076687757,-0.06131984214793023,1.0004664687737403
2026-03-24 18:43:20.600000-06:00,0.004697707474009983,0.039340378212743395,0.0046934665762518295,0.0031102927095389347,-0.06245937909479792,0.9974755717803736
2026-03-24 18:43:20.700000-06:00,0.009693352979865705,0.04233003421147895,-0.006565971050256715,-0.00042135285749975854,-0.06538803464995692,0.997998927258544
2026-03-24 18:43:20.800000-06:00,-0.17691668408681865,0.04810934416951762,0.01978174096149042,0.8701206834138061,0.05479765261327774,0.9244982119276205
2026-03-24 18:43:20.900000-06:00,0.0003936990205625775,0.1164961021347759,-0.04065606093824089,-0.10183669943354766,-0.07349110042675125,1.054354112770416
2026-03-24 18:43:21-06:00,0.04537530451275411,0.05483035491222792,-0.04054782418053056,0.07119570597502715,-0.08209735638571786,0.9384068280197623
2026-03-24 18:43:21.100000-06:00,0.0632188565922104,0.012716928818709753,-0.0008202845008234208,0.007297146324177981,-0.036445929037948736,0.9978653508588562
2026-03-24 18:43:21.200000-06:00,-0.0880625289981798,-0.08334182722948204,0.052383943548510455,0.06317452952843224,-0.07483116762604967,1.0074911412153997
2026-03-24 18:43:21.300000-06:00,0.057637133985611815,0.01120290007290971,0.019824919824812756,-0.017865132333671544,-0.07104389980268493,0.9868580962918021
2026-03-24 18:43:21.400000-06:00,0.01576080618763798,0.03640093813891594,-0.023319905370335438,-0.012344806126455006,-0.07263493853660527,1.012678860773047
2026-03-24 18:43:21.500000-06:00,0.0017900459382153948,0.02596998975185206,-0.00674587958171241,0.0026629538119541333,-0.040731989007459224,0.9992158871785982
2026-03-24 18:43:21.600000-06:00,0.03047009937134496,-0.018287712929491724,-0.016713867630638393,0.011863901536202478,-0.01849528636180551,0.9954588009157054
2026-03-24 18:43:21.700000-06:00,0.01637945679717335,0.03595286055890646,0.001973350736490035,-0.0012514569195392945,-0.04199186062518801,1.0013546970678062
2026-03-24 18:43:21.800000-06:00,0.030781449322653507,0.04615292174187924,-0.003848481081714959,0.0014875518143300708,-0.016506922343511803,0.9983924894841766
2026-03-24 18:43:21.900000-06:00,0.008876938607985399,0.06358394558794288,-0.00939130895871679,0.004482062681955613,-0.028996943910509707,1.0000313338397926
2026-03-24 18:43:22-06:00,0.004658006862690114,0.09379188611809335,-0.0007288716330245294,0.01748499406015306,-0.03486588182508809,1.000457831063615
2026-03-24 18:43:22.100000-06:00,0.016311786389847708,0.06522741201123727,-0.0048201801838548336,0.0008902132736459427,-0.030701411797096866,1.0022922017202613
2026-03-24 18:43:22.200000-06:00,0.016682172811306614,0.0037601649900832605,-0.008321486950181766,0.006192827316157912,-0.03371116762604968,1.0050614542172915
2026-03-24 18:43:22.300000-06:00,0.01195126419317504,-0.1064392937445509,0.00465165005379003,-0.05337026354565525,-0.4066927136178002,0.9007104256805333
2026-03-24 18:43:22.400000-06:00,0.036555975791937104,-0.05662980018660807,-0.04213004440864108,0.004192023779782089,-0.053292201720261265,0.9947669795495914
2026-03-24 18:43:22.500000-06:00,0.02498891058618387,-0.04932069259125186,0.012509557290206136,0.0009970887102119465,-0.054013310355728004,0.9965524567512861
2026-03-24 18:43:22.600000-06:00,0.005105217887861809,-0.012750393865387264,0.0012045102048100014,0.03716778359582528,-0.040197605706331935,0.9890694365558066
2026-03-24 18:43:22.700000-06:00,0.06903169277989936,-0.05077338336740885,0.004370312390061846,-0.029808692060999425,-0.02474461717304074,1.0084737271137443
2026-03-24 18:43:22.800000-06:00,0.043445502796571715,0.10950358175319809,-0.03408055962025768,0.01962849698928788,-0.05533558350710997,0.9939765485665341
2026-03-24 18:43:22.900000-06:00,0.12537501593306583,-0.11686478053157807,0.048636598634599994,-0.04223201602993886,-0.1767892195601964,1.0018444524888725
2026-03-24 18:43:23-06:00,0.0977248438559549,0.050442803607755965,0.030104294534830957,-0.01122684198987422,-0.0566648036791361,0.9881077350573335
2026-03-24 18:43:23.100000-06:00,0.07748669525271117,-0.15413330750052262,0.05530419256320967,0.06025130906068842,0.028168304160951996,0.9461938725252762
2026-03-24 18:43:23.200000-06:00,0.04971305389710044,-0.18463437565325572,-0.0497526127678667,0.013909946821799492,-0.07095561685183012,1.0114786864015746
2026-03-24 18:43:23.300000-06:00,-0.025188130503280937,-0.31923402996945954,0.24232778777666178,0.15511812698526,0.03881702722132431,0.7758232627859667
2026-03-24 18:43:23.400000-06:00,0.05854321608296412,0.13705358098841094,-0.03241509587881693,0.016303786716156888,-0.020421571076769344,1.010611115926438
2026-03-24 18:43:23.500000-06:00,-0.004412001651940265,0.10176496968893557,0.04517642620058838,-0.00022399840924270731,-0.013619966043450104,0.994202566625708
2026-03-24 18:43:23.600000-06:00,0.03242362886408713,-0.010976554684831212,-0.01821867916158933,-0.009609629180199152,-0.021475444723733386,1.0285616607098245
2026-03-24 18:43:23.700000-06:00,0.03503129611029251,-0.041082048405928634,-0.009076323719108973,0.006692705460070461,-0.03577794965661057,0.9975813687650728
2026-03-24 18:43:23.800000-06:00,-0.003654947408136316,-0.01906315612365079,0.002553919534193634,0.011340947214390235,-0.026564843244125162,1.0056540821789297
2026-03-24 18:43:23.900000-06:00,0.020193880683005924,-0.10314105224516017,-0.01592966201506121,-0.0004298807441888945,-0.011721943783045188,0.9941866610922182
2026-03-24 18:43:24-06:00,0.020585627099978077,-0.04890275272391694,0.007597186093110288,-0.002712627655723414,0.01541375087313201,1.0148848031692779
2026-03-24 18:43:24.100000-06:00,0.029779256932795605,-0.009268722754457434,0.0027707819693779225,-0.03356125690220412,-0.021475276470558247,0.9607852743801399
2026-03-24 18:43:24.200000-06:00,-0.0032516225214522802,0.0334475993331056,0.04754975756247037,0.06571562398984364,-0.01551359944527438,0.930402244395385
2026-03-24 18:43:24.300000-06:00,0.02009444407621359,0.01675110460758771,-0.0172691520549831,-0.0015504438314816996,-0.01303010457189764,1.0241351052602061
2026-03-24 18:43:24.400000-06:00,0.00950101206834138,0.006602822574477522,-0.002665754360561456,0.008554987686926729,-0.02435382317101151,1.0005647310753418
2026-03-24 18:43:24.500000-06:00,0.004987319115090271,-0.0029573532245975947,-0.00704754222899767,0.0023326810888529724,-0.018636646765205243,0.9994565707963473
2026-03-24 18:43:24.600000-06:00,0.011034045265202694,-0.009771400019374609,0.006950197060158159,-0.00908204524480837,-0.009443600006118297,0.9937548347294948
2026-03-24 18:43:24.700000-06:00,0.005006850453518786,-0.015849795801828354,-0.0018941909826495288,-0.0025668503515471645,-0.01696820524847935,0.9917412845365136
2026-03-24 18:43:24.800000-06:00,0.014278746564831007,-0.002588717451933127,-0.006119604248137744,0.002801254250941964,-0.015101283720740521,0.9976746204871186
2026-03-24 18:43:24.900000-06:00,0.0026966772547200113,-0.0012140085554190269,-0.00585158948264698,0.0027323227605757323,-0.018427992535677323,0.9992365884374379
2026-03-24 18:43:25-06:00,0.010976246730534893,0.0032581615536396223,-0.005063591338530488,0.003724753101211933,-0.004356161584231109,1.0030846280840042
2026-03-24 18:43:25.100000-06:00,0.0012213385814727762,0.002659211453452504,0.010463951502296912,0.02464266186720236,-0.013578211315790815,0.9850560272876058
2026-03-24 18:43:25.200000-06:00,0.011101916556622292,0.007670278841398439,-0.00394076917193945,0.002562083892052842,-0.021517279601087017,1.005255795200196
2026-03-24 18:43:25.300000-06:00,0.007086571867049401,-0.0032908163338142998,-0.006121549152870756,0.0031614282145278976,-0.010556184425874278,1.0073755961515911
2026-03-24 18:43:25.400000-06:00,0.011515460427363065,-0.021323941407106403,-0.0007371376871816574,0.008431539822467407,-0.013019060535452983,0.9979651411338225
2026-03-24 18:43:25.500000-06:00,0.17372023065980738,0.0013861203367102936,-0.029441649289002874,-0.16225223088414495,0.0435098798264443,1.01288370136591
2026-03-24 18:43:25.600000-06:00,0.015645342701126278,-0.00989734108997466,0.005792462971555017,0.006314657910703452,0.018498340921721482,0.9982065581008805
2026-03-24 18:43:25.700000-06:00,0.020306584817445305,-0.061320593678779206,0.023153611070039208,0.01507341752790199,0.013191592439824004,0.9895073893735373
2026-03-24 18:43:25.800000-06:00,0.04753667460345786,-0.03628047906267686,-0.0053067106504259874,0.0010803271249611244,-0.007822522471996045,0.9913106977408189
2026-03-24 18:43:25.900000-06:00,0.00024112153487684378,0.026203880020190383,-0.0018585011191385437,0.0066518786231791706,-0.015101879846838626,1.0024414728780981
2026-03-24 18:43:26-06:00,0.01055865713571913,0.04810494103490999,-0.0075432136356452005,0.005728343012139722,-0.013517939357476815,0.9967192319497483
2026-03-24 18:43:26.100000-06:00,0.009124166764389471,0.01322479847858341,-0.013005325977780383,0.009968833393666542,-0.004562798713118138,1.0043773031565315
2026-03-24 18:43:26.200000-06:00,0.009335527014831773,-0.02330532240877364,-0.0012715139216755978,0.012014473240097284,-0.004754679732630406,1.0092354975450333
2026-03-24 18:43:26.300000-06:00,0.01234670453212871,-9.385392565249092e-05,-0.016316319028414395,-0.00014670453212870836,-0.007897146059051766,1.0205593581906156
2026-03-24 18:43:26.400000-06:00,0.007864971218509889,-0.010431291011711441,0.005530088664324719,0.02080502924036241,-0.0190927085192191,1.0029219311385642
2026-03-24 18:43:26.500000-06:00,0.008809752565860921,-0.011570398046223736,0.00030934498529059366,0.006806247801236915,-0.00764460197926917,0.9975286526999537
2026-03-24 18:43:26.600000-06:00,0.0077728800354861256,-0.0018788107049808038,-0.004727405994911616,0.009795120250034416,-0.009040189157357508,1.0007354209643458
2026-03-24 18:43:26.700000-06:00,0.0007099356763012853,0.0061111710930847945,-0.0030864479715295235,0.010026064894739794,-0.013126171526464184,1.0010465056874673
2026-03-24 18:43:26.800000-06:00,0.005148523705852662,0.0005509242707754432,-0.0007547395287891381,0.006563475804683556,-0.011957924112719431,1.000605758990073
2026-03-24 18:43:26.900000-06:00,0.004252733808181183,-0.0021414236258049386,-0.009856639525220132,0.016792266268297534,-0.013108577138982221,0.9902487204091102
2026-03-24 18:43:27-06:00,0.004775147782372166,0.002221972029184278,-0.0021675543636206045,0.0050458527631760085,-0.013079972059775766,0.9971386199160774
2026-03-24 18:43:27.100000-06:00,0.006990951038326034,-0.0031314812907567826,-0.0010102092967527137,0.006185048920885318,-0.010715519468931796,0.9964692090571194
2026-03-24 18:43:27.200000-06:00,0.00807378564545487,-0.0037815732181733825,-0.00512942799019033,0.007054214232179184,-0.014457427867824385,1.0015034191084622
2026-03-24 18:43:27.300000-06:00,0.0024633158112097406,0.00012954459473928407,-0.003965762008433054,0.010224684168395936,-0.010011544462176176,1.0009497473653084
2026-03-24 18:43:27.400000-06:00,0.005089796515629701,-0.0011804322577026814,-0.004124470129962831,0.007598203463975977,-0.013642567441481039,1.0000715060698608
2026-03-24 18:43:27.500000-06:00,0.006346316020251565,-0.009192115554241256,-0.00869598792656004,0.00780568389817114,-0.01051088394099922,1.004582044836922
2026-03-24 18:43:27.600000-06:00,0.0058566403409931024,-0.005170299439665941,-0.004171246246169691,0.009271359536640952,-0.013556701116079395,1.0000573031565316
2026-03-24 18:43:27.700000-06:00,0.003088086043654051,0.0013138470323708913,-0.0058391418068351585,0.0100879139155573,-0.013208847363778661,1.0042262056869575
2026-03-24 18:43:27.800000-06:00,0.0030637475590543153,-0.0007117499553874158,-0.0031482003538415263,0.00620825256331163,-0.010695249886556573,1.0034872559946566
2026-03-24 18:43:27.900000-06:00,0.005608627512963143,-0.003609914190880678,-0.006072050088460381,0.007079372466642533,-0.01462908689511709,1.0019581069988224
2026-03-24 18:43:28-06:00,0.006034319568863985,-0.00827794139690924,-0.007630639413051349,0.007202680833923921,-0.01136405969418711,0.9927806141750751
2026-03-24 18:43:28.100000-06:00,0.0025173915659272026,0.0002597684020537085,-0.003377413285882539,0.009194607944609015,-0.014045768718165737,0.9993244492257806
2026-03-24 18:43:28.200000-06:00,0.003697707677953226,0.004734097780587663,-0.0003385193006786212,0.011430292199680827,-0.015165098173178406,0.9973225046575539
2026-03-24 18:43:28.300000-06:00,0.0036972707295559646,0.0012920620191400733,0.002840216791666879,0.008014728780980253,-0.014163061799901087,1.0009147861910033
2026-03-24 18:43:28.400000-06:00,0.007717283170093764,-0.013477315902984201,-0.009368942503301333,0.011802718053565692,-0.010129684448817896,1.0013510158922772
2026-03-24 18:43:28.500000-06:00,0.0024342349324183083,-0.0037253001789601956,0.00030107893113346556,0.00927776457811791,-0.012561699968898657,0.9985128891415519
2026-03-24 18:43:28.600000-06:00,0.00026402603335491735,0.004706762248066363,-0.0053191583262378085,0.009556974512193258,-0.015076762604967039,1.0002902238786946
2026-03-24 18:43:28.700000-06:00,0.005820117777222599,-0.005954583879306389,-0.000925409288594984,0.008331882141200104,-0.013748415615934087,0.9992514431533706
2026-03-24 18:43:28.800000-06:00,0.0030244222033008216,-0.001289000219238986,-0.0011325468941993442,0.010639578245374313,-0.008653999683887973,0.9981165322510746
2026-03-24 18:43:28.900000-06:00,0.0027751041385182503,0.006389127785737229,-0.0044423728796276,0.011376895779904453,-0.01578312777554007,0.9999623516695304
2026-03-24 18:43:29-06:00,0.002353000463970877,0.0008369624693447815,-0.0029312406377305198,0.009846999536029124,-0.014195963759285791,1.0008302173525108
2026-03-24 18:43:29.100000-06:00,0.006294642614960257,-0.0021247592195092107,-0.003671392983332739,0.008345358812642442,-0.012210241009926938,1.0010823845043926
2026-03-24 18:43:29.200000-06:00,0.0026374302131716744,-0.001782758842214212,-0.0017797304890049101,0.01151456970525103,-0.012064241917474367,1.00211878612982
2026-03-24 18:43:29.300000-06:00,0.002320571346994132,0.0007969222415401794,-0.00442613257330485,0.008476428647907288,-0.010678922108977073,0.9994581771552976
2026-03-24 18:43:29.400000-06:00,0.003981319818694457,-0.001748017110838054,-0.002729548826561568,0.00870668016091122,-0.014538983037020798,1.0005675465118058
2026-03-24 18:43:29.500000-06:00,0.00395496892414841,-0.003939746600521076,-0.0033428902836340644,0.009221031035062941,-0.011859254077590208,0.9982528748349335
2026-03-24 18:43:29.600000-06:00,-0.00037867501134434287,0.004432693733334013,-0.0026335653867528667,0.012578675011344343,-0.014314693600770905,0.9996175507436281
2026-03-24 18:43:29.700000-06:00,0.00493501613700907,0.0017616803903473665,0.0009636276404276691,0.010192983740624982,-0.013168680232291355,0.9998633622082975
2026-03-24 18:43:29.800000-06:00,-0.00029826937843198235,0.0029944357145406434,-0.002617714000193746,0.010119269923980158,-0.014340436132624292,0.9980767137605604
2026-03-24 18:43:29.900000-06:00,0.005061748201475529,-0.013973521029097604,-0.0016106166733797986,0.01195725217072089,-0.00816947989374557,0.9998756715086192
2026-03-24 18:43:30-06:00,0.0038456503495077317,-0.0022086764593413654,-0.006264211529931221,0.012258349487337675,-0.012126323770094784,1.0022112474698293
2026-03-24 18:43:30.100000-06:00,0.0018020503433894349,0.0007959041772674665,-0.0017222570398658054,0.006981949901342457,-0.013666903958028482,1.000109320919988
2026-03-24 18:43:30.200000-06:00,0.006070224490524287,-0.0031817507507660623,-0.00382591965655958,0.009057775387109767,-0.014569249845767924,0.9997729555964576
2026-03-24 18:43:30.300000-06:00,0.0010715269740431239,-0.0015736685820336202,-0.002035978137284394,0.011128473025956877,-0.011785332707907391,1.000911027211127
2026-03-24 18:43:30.400000-06:00,0.002934842581309622,0.0020753164434337925,-0.0010143909489988936,0.012193157296324432,-0.011042316387349402,0.9965343697389017
2026-03-24 18:43:30.500000-06:00,0.0025567450658481746,0.004696490340738173,-0.007014672288702054,0.01110725538282696,-0.01268749032544243,1.0030226872581363
2026-03-24 18:43:30.600000-06:00,0.0020556678376407846,0.0028434343022336887,-0.0024470443015708727,0.011120332121570566,-0.01229843473561308,1.0013830724049497
2026-03-24 18:43:30.700000-06:00,0.007703433894347203,-0.018478309106575642,-0.0026738259242452826,0.010779565906808137,-0.013424691408381045,1.0003898655504173
2026-03-24 18:43:30.800000-06:00,0.0015541826209765823,-0.009396926575334084,0.0003952147165443857,0.01156081791437443,-0.014698073246215576,0.9998217808935775
2026-03-24 18:43:30.900000-06:00,0.004561074373001994,0.007845866835259748,-0.0018134754477828823,0.011054925994095842,-0.009980866962724275,1.0003224464011666
2026-03-24 18:43:31-06:00,0.003675796525826863,0.012738090989277685,-0.0035327177986366393,0.010049203346708611,-0.012860090989277685,0.9981377052306344
2026-03-24 18:43:31.100000-06:00,0.001474545843891645,0.007288280911422352,-0.003529994850433125,0.011762454558896261,-0.015218281472266271,0.9975860690449848
2026-03-24 18:43:31.200000-06:00,-0.02664750347978158,-0.03306230975919402,0.02073496351965248,-0.017577496902612004,-0.023118689868609568,0.9628290466163266
2026-03-24 18:43:31.300000-06:00,0.01579969102598747,-0.015646470507257832,-0.004153255494995743,0.006587309631729491,-0.003080530048487505,1.0001002914348938
2026-03-24 18:43:31.400000-06:00,-0.006378934702472302,0.010230354912227927,-0.0029802535014505464,0.011319934636190748,-0.017733355427184617,1.0028312729627344
2026-03-24 18:43:31.500000-06:00,-0.0006186884410068678,0.009697219743745317,-0.0002367981930628706,0.010378689052836596,-0.02842422029949065,1.000514874804342
2026-03-24 18:43:31.600000-06:00,-0.024908632407600967,-0.00026012852503148377,0.0014166075061310438,0.02344463246878394,-0.025298871745193314,1.0069744332672217
2026-03-24 18:43:31.700000-06:00,-0.0077640978315734735,-0.004657486501506631,-0.002114554307536213,0.021367097836672056,-0.029685515441052756,0.9963536165765069
2026-03-24 18:43:31.800000-06:00,0.027624982027501747,-0.0589991587341243,0.0067698025319553575,-0.0014559803806600594,0.010382157005705316,1.0005232078232629
2026-03-24 18:43:31.900000-06:00,-0.0020958143708605897,-0.01878127801032973,-0.012719417945985634,0.027410813886495387,-0.013609724013806957,1.0026274905293857
2026-03-24 18:43:32-06:00,0.016723139910163002,-0.06950615143805479,-0.008045011803215166,0.012251859707443422,-0.03132685065746203,1.0069200608770579
2026-03-24 18:43:32.100000-06:00,0.01947020338239868,0.002449042435490203,0.002292323168462217,-7.220304589232869e-05,-0.05198104367954398,1.002499629231185
2026-03-24 18:43:32.200000-06:00,0.014156148123977098,0.054275445743449606,-0.010232696180652924,0.00987785329342844,-0.017309446141138923,1.0033737790172996
2026-03-24 18:43:32.300000-06:00,0.0073608027206028565,0.056848091856036474,-0.004181943579101936,0.013745197799452415,-0.023786090051138773,1.000677892756446
2026-03-24 18:43:32.400000-06:00,0.002836624739335043,0.04617283170093763,-0.004642119684091918,0.01582937537283374,-0.0160388307933902,1.004493139145376
2026-03-24 18:43:32.500000-06:00,-0.00388560619579571,0.010401064583726348,-0.011472799579876921,0.005898606149908481,-0.022235064981415673,1.0010757730723538
2026-03-24 18:43:32.600000-06:00,0.0017050046652016745,0.036868551442133655,-0.0034788424181550277,-0.0021320046703002557,-0.03363555138604926,1.0132119316994082
2026-03-24 18:43:32.700000-06:00,-0.017801986407182883,0.00928737948229008,-0.01536134663723086,0.01359298639188714,0.004803619992556071,1.007648315173887
2026-03-24 18:43:32.800000-06:00,-0.035788934039656765,0.03800974134898258,-0.0023525194638332153,0.01700093406005109,0.004873258452172759,1.0109875783269515
2026-03-24 18:43:32.900000-06:00,-0.02096522257855639,0.003891106035190407,-0.0009910514803730122,0.006996221951430916,-0.010784106193246422,0.9852260348844918
2026-03-24 18:43:33-06:00,-0.014397992178776648,-0.07271028332814977,-0.008250398963968328,0.014763992168579487,-0.01824071420923557,0.999866394232485
2026-03-24 18:43:33.100000-06:00,0.01793947270474627,0.033866882166693014,0.01214837890615042,0.014268526968944545,-0.014590881697623553,0.9998416482692867
2026-03-24 18:43:33.200000-06:00,0.0020206890222451094,0.022100085146303784,-0.0037614445299873045,0.019634310391418067,-0.007460083718701086,0.9713434424599634
2026-03-24 18:43:33.300000-06:00,0.0029352065180260336,0.033113394482315574,0.008122907414866444,0.01182679273758113,-0.00590739447211841,0.994595044179205
2026-03-24 18:43:33.400000-06:00,-0.0011836369198452072,0.08457486195591768,-0.003785756298022261,0.009784636751592033,-0.007531860523216393,1.0002817054753663
2026-03-24 18:43:33.500000-06:00,0.00721304471965452,0.09744066220370871,0.0020160423794058115,0.007243955377218522,-0.004720660980049248,0.9941750116502579
2026-03-24 18:43:33.600000-06:00,0.023009273299240823,-0.05379172296349926,-0.003423411358618896,0.0321957253496352,-0.021238275048054128,1.0158403937124298
2026-03-24 18:43:33.700000-06:00,-0.008895416885480772,-0.004389407493894449,0.011355615832113924,0.03805341885353307,0.0006684074582043818,1.0100893220416758
2026-03-24 18:43:33.800000-06:00,0.012056348498212948,-0.06314325789132885,-0.012118135142989707,0.015576650538155231,-0.00926374449990567,0.9981831012629186
2026-03-24 18:43:33.900000-06:00,0.025240228824318194,-0.008374110425068705,0.0010582496571204234,0.0015387711399917378,-0.012304890049099336,0.9967797480281239
2026-03-24 18:43:34-06:00,0.013354735817022123,-0.027280741129743595,-0.00045580004384779716,0.016291263581345316,-0.005171258278821003,0.9996358462369923
2026-03-24 18:43:34.100000-06:00,-0.0040799649217622734,-0.06323842494633744,0.006301749323163364,0.009813964809593491,-0.0058135754819433755,0.9977582507788084
2026-03-24 18:43:34.200000-06:00,0.017200741333686834,-0.04815414846048345,0.0032092718716381237,0.013299260195887485,-0.011198851799544187,0.9990817245440594
2026-03-24 18:43:34.300000-06:00,0.004401697521579745,-0.013427369183156328,-9.890092947132814e-05,0.006822302519208905,-0.009691631698898197,0.9944598702717035
2026-03-24 18:43:34.400000-06:00,0.005687576797377291,-0.023089270036148943,-0.009148967894235034,0.007488423161834061,-0.00680073011680849,0.9966169615516002
2026-03-24 18:43:34.500000-06:00,0.0071102129677310805,-0.010184179714785377,-0.004652136254480378,0.009481786338861896,-0.010494820759382665,1.000050156985311
2026-03-24 18:43:34.600000-06:00,0.00910344460136744,-0.009412793359608021,-0.002745983796709376,0.010904556092039585,-0.008826207726389746,0.9991809539445173
2026-03-24 18:43:34.700000-06:00,0.005739345954020996,-0.01450638087420271,-0.009260608260721042,0.015671654744484613,-0.012028618335517228,1.0006935644690083
2026-03-24 18:43:34.800000-06:00,0.015724674583063536,-0.02566536176981946,-0.008613716202780767,0.019777326610004437,-0.009714640575527834,1.0019377361280355
2026-03-24 18:43:34.900000-06:00,-0.0014766936721510404,-0.030203555750434655,0.005159963902046061,0.031244693957671585,-0.0006624443617341272,0.9682779583241985
2026-03-24 18:43:35-06:00,-0.011921707718741873,-0.0033390943900312546,0.0016835524873427725,0.04120170955423106,-0.006054905599771584,0.9826734909474695
2026-03-24 18:43:35.100000-06:00,0.0024649454196897006,0.006401735556994489,-0.004131472011339244,0.007844055105464149,-0.01292873560288172,1.0035555362942494
2026-03-24 18:43:35.200000-06:00,0.0043313509710247635,-0.010958340513835001,-0.00843750363273901,0.012748649844748208,-0.006243659149658649,0.9985285133047475
2026-03-24 18:43:35.300000-06:00,0.005947524383963943,-0.004508881626243417,-0.00664590864362448,0.016500475697613357,-0.005434118276883544,1.0016779532256173
2026-03-24 18:43:35.400000-06:00,-0.008983223628864088,-0.0032336761279335964,-0.0009504019211453452,0.013436223379033616,-0.012992323576348705,0.9904923963840864
2026-03-24 18:43:35.500000-06:00,0.009370195734527083,-0.01164566901031443,-0.008026923567171256,0.012589804877302647,-0.000676331876838676,0.9972029418812745
2026-03-24 18:43:35.600000-06:00,-0.0021131396552339483,0.0009790594137651493,-0.003972569225984409,0.016326140017233204,-0.0011010594137651492,0.9991266738386707
2026-03-24 18:43:35.700000-06:00,-0.0046921384978560465,-0.008154144381618595,-0.0017609616943604597,0.005729138492757466,-0.0008128555622970137,1.004051958110058
2026-03-24 18:43:35.800000-06:00,0.03134801996604345,0.024303328863577268,0.008965364319109992,0.013425980329674254,-0.030403328965548888,0.999852733604238
2026-03-24 18:43:35.900000-06:00,-0.01698782356870083,0.020225230838257714,-0.009052789688629655,0.0074108236757710316,-0.0012542295279223798,1.0067688293148018
2026-03-24 18:43:36-06:00,-0.01753602402451398,-0.018447851203010204,-0.005428950966945899,0.021501024304935938,0.0066138508053208795,0.9974720033854579
2026-03-24 18:43:36.100000-06:00,0.0074881212238633995,-0.014130513478099046,0.012800911626294403,0.012946878495714643,-0.006121487969897976,0.9913811485063707
2026-03-24 18:43:36.200000-06:00,-0.005802022913023306,-0.041166088317621204,-0.020411712460422265,0.013610023096572225,-0.004827911672181634,0.999400765806876
2026-03-24 18:43:36.300000-06:00,0.01297765291919259,-0.02030273742817374,0.004928125302728251,0.014228347091004576,-0.009770262016080925,1.0064519076341054
2026-03-24 18:43:36.400000-06:00,-0.004794702166387095,-0.02513133027078564,-0.01956079497075964,0.012175701794190677,0.0006093293836325356,1.0046497907032474
2026-03-24 18:43:36.500000-06:00,0.00462485660240755,0.02478473076942687,-0.0013515487959700815,0.0178841439227463,-0.0025197309988630166,1.0074855497035176
2026-03-24 18:43:36.600000-06:00,0.00365048003140726,-0.027952073337990036,-0.00921956937384326,0.012880520871041589,-0.008830925953307195,0.9990666629277073
2026-03-24 18:43:36.700000-06:00,0.004457762334742241,-0.0468048640463359,0.0114208690021567,0.01634323800686269,-0.00962013939520632,1.0011181733823478
2026-03-24 18:43:36.800000-06:00,-0.00308765378595137,-0.02041577195066613,-0.018999383071691148,0.011871654030683262,-0.009474228202291301,1.0030513274155803
2026-03-24 18:43:36.900000-06:00,0.004058022566319793,-0.043840618355911555,-0.004250503178965294,0.016742977775285137,-0.008619382765776278,1.00660258059582
2026-03-24 18:43:37-06:00,0.0021798759005368807,-0.021221478282593957,-0.0008196037382796369,0.01191112357430927,-0.008729524353372457,1.0009146412893293
2026-03-24 18:43:37.100000-06:00,-0.009320988308953618,0.018114219432731872,0.05040349150831324,-0.03069501103842801,-0.00530422009554741,1.024965569282069
2026-03-24 18:43:37.200000-06:00,0.019809547602902114,-0.08897080042624139,-0.03359179230420174,0.011239454859712542,-0.011252201312374763,0.9979407799809312
2026-03-24 18:43:37.300000-06:00,-0.02688564392529559,-0.018384185221252927,0.004339193098560671,0.008402644124140253,-0.007662816558151864,1.0078947501950208
2026-03-24 18:43:37.400000-06:00,0.021719171174662093,-0.025860261149322144,-0.010717379023417782,0.015246828427648589,-0.012447739034226777,1.0040413989486725
2026-03-24 18:43:37.500000-06:00,0.012130031152330306,-0.001504473087139849,-0.0003914220554419705,0.013184968363304492,-0.005998527427816838,1.0017674271132346
2026-03-24 18:43:37.600000-06:00,-0.007970351751107666,0.0019040958941126684,-0.0030979232459606497,0.019682351261643888,-0.01916709600118287,0.9999599505437637
2026-03-24 18:43:37.700000-06:00,0.019629668643216594,0.00409975475825078,-0.007730998863016423,0.008613331769768477,-0.016970754539011795,1.0042269480403603
2026-03-24 18:43:37.800000-06:00,-0.006607003003064247,0.04848288253379084,-0.020037599995921137,0.002520002855205396,-0.02261888208511571,0.9939636603733182
2026-03-24 18:43:37.900000-06:00,0.021932430544579447,0.032152842204014626,0.004127484920946501,0.003931569904095691,-0.014340842183620299,1.0116445677168044
2026-03-24 18:43:38-06:00,-0.012469488153446897,0.051836023514655875,-0.027617767535294928,0.020094488535840477,-0.00931902433552742,0.9973958263015406
2026-03-24 18:43:38.100000-06:00,0.022906238113932893,0.05072006954464573,-0.013447997022428658,0.02497876237043231,-0.020037068723774174,0.9895700162644737
2026-03-24 18:43:38.200000-06:00,0.0012682940657614986,0.020309097398194084,0.0023923910815620013,0.019715705567140668,-0.007804097219743746,1.0016676090204097
2026-03-24 18:43:38.300000-06:00,-0.021948983597864714,0.020871177211382073,-0.00281094522594362,0.013835983745723564,-0.004401176752509776,1.0038819531644343
2026-03-24 18:43:38.400000-06:00,-0.015973137615801523,-0.002250056645235631,-0.007804323596743027,0.011215137381266794,-0.009034943839129572,0.9876472872999444
2026-03-24 18:43:38.500000-06:00,-0.008136972360592047,-0.008913192578505402,0.006427587810312391,0.012589972110761577,-0.007312807125776898,0.9870183901740145
2026-03-24 18:43:38.600000-06:00,0.006873787684887296,-9.279483411766505e-05,-0.004373229798147176,0.00923021215195811,-0.009850205069009296,1.0066642262138448
2026-03-24 18:43:38.700000-06:00,-0.0011624391611814433,0.002237507405688997,-0.007593296385615883,0.008055439319237457,-0.005287507456674808,1.0050653179220224
2026-03-24 18:43:38.800000-06:00,-0.014974066577271546,0.0007894508828193114,-0.0049551600189667215,0.014059066551778642,-0.014087451729183768,0.999377108390735
2026-03-24 18:43:38.900000-06:00,-0.0024102892425038112,-0.00010113914537584191,0.0013071065552456751,0.013634289283292461,-0.012281861165637604,0.9995198832934794
2026-03-24 18:43:39-06:00,-0.00123881590553349,0.009129656916480143,-0.0029895893092952235,0.01301181585964626,-0.01998765694707163,0.9935686351608348
2026-03-24 18:43:39.100000-06:00,0.014050800222298133,0.0028947757898976716,-0.0003126514151111746,0.007848199945955044,-0.020157775896967874,0.9991266194877967
2026-03-24 18:43:39.200000-06:00,0.004344531108992368,0.036357420729810894,-0.00885634951792916,0.014260468559599865,-0.02043642018426272,1.0168203331412868
2026-03-24 18:43:39.300000-06:00,0.0037487521222843686,0.01546431350155252,-0.005359418863730224,0.013819248163236172,-0.016623313465862453,1.003868389817114
2026-03-24 18:43:39.400000-06:00,-0.00044329004298103837,-0.009348812285540934,-0.003756679396124059,0.015083291470583737,-0.014258188066261161,1.0015336980518323
2026-03-24 18:43:39.500000-06:00,-0.0007352246485803002,-0.02894621506834648,-0.0037189471430101005,0.0182422255102405,-0.009788784141373458,1.0003369563510476
2026-03-24 18:43:39.600000-06:00,0.03933887719047789,-0.030180263392697814,-0.02460425527575676,-0.1836038810399066,0.14437226575843945,0.9824872224459933
2026-03-24 18:43:39.700000-06:00,-0.020078194898359786,0.0007433752198763085,-0.021052964060102076,0.0085491946791208,-0.010991375301453606,0.9994320231679523
2026-03-24 18:43:39.800000-06:00,-0.015717339764343585,0.051110746279310476,-0.00507351062799223,0.013948339749047842,-0.010728744270469532,1.0132815123411154
2026-03-24 18:43:39.900000-06:00,0.01988310279249285,0.06299590991826975,-0.02983978218861691,0.011165899670121807,0.009716091631698898,1.00199683887974
2026-03-24 18:43:40-06:00,-0.016098431166606333,0.10972274935885344,0.008171531052907976,0.008656431095226198,-0.009255744826214874,1.009430504300653
2026-03-24 18:43:40.100000-06:00,0.0023489562694702063,0.1584882299256117,0.0061828153344924116,0.003507043485797903,0.0035277796189320636,1.0062952480204759
2026-03-24 18:43:40.200000-06:00,0.014305020572774598,0.22687072547709974,0.006883874105836346,0.010704979784126078,0.007430284551809231,1.0040691526668128
2026-03-24 18:43:40.300000-06:00,0.01572633672049069,0.1463380359246022,0.005367490427414051,-0.012249336521646026,-0.0007920339769442138,0.98112453284251
2026-03-24 18:43:40.400000-06:00,-0.052527866294810155,-0.06509440022841644,-0.005980637322633112,-0.01652413413347066,0.00409439512983537,0.9879585808609463
2026-03-24 18:43:40.500000-06:00,0.0033013995605023125,-0.06724532536595065,-0.011716599450372962,0.02542960236166275,0.010027322276210534,0.9775295936940749
2026-03-24 18:43:40.600000-06:00,0.006071260828111537,-0.012840369545155585,0.022654244823665577,0.027905738452988535,0.078659369917352,1.070648768947602
2026-03-24 18:43:40.700000-06:00,-0.024905802695109953,-0.1071008958206931,-0.01103790754233097,0.020330802465673804,-0.008250105795557105,0.9984449221701601
2026-03-24 18:43:40.800000-06:00,0.009898476034119705,-0.20082011696144964,-0.0011685286004904836,0.018283522915572593,0.0027531114090948595,0.9965055193159744
2026-03-24 18:43:40.900000-06:00,0.021594800467030027,-0.18331866641513667,0.04705768330673574,0.07692019700917235,0.006784671625886511,1.0155012945297324
2026-03-24 18:43:41-06:00,0.02156061448098994,0.021888220748165786,-0.006817259716620864,0.007902386645796474,0.03270678366210684,0.997274245537467
2026-03-24 18:43:41.100000-06:00,-0.0029510176257947418,0.10923791508823096,-0.011975959170562833,0.01814001794700535,0.04411609469084755,0.9976750511132754
2026-03-24 18:43:41.200000-06:00,-0.01945620471822692,0.2299005572749104,-0.009861502143953338,0.019395204717207203,0.029959435689047735,0.9986715443092187
2026-03-24 18:43:41.300000-06:00,0.04091832582992153,0.10195408625779447,0.042906275843432776,-0.0071243248204024825,-0.016737085549091694,0.9760987870475648
2026-03-24 18:43:41.400000-06:00,-0.08062117032829763,0.3190578841908297,0.009239894357400337,0.0955051704710579,0.019980115533846925,1.0773530808176084
2026-03-24 18:43:41.500000-06:00,-0.036418571071670756,-0.08135065491273778,-0.1246863505886312,0.005125570913614736,-0.004598349079451187,0.9916183304186446
2026-03-24 18:43:41.600000-06:00,0.012830125476080008,-0.13828881422300174,0.07384057756726303,0.04548587744030836,0.03117281640519443,1.0025044536105603
2026-03-24 18:43:41.700000-06:00,0.1901463904595351,-0.39610650935844555,-0.023497673517460092,0.006090611982685227,-0.010397505774143093,1.0204816588743353
2026-03-24 18:43:41.800000-06:00,0.16255977321511425,-0.2106870032070075,0.009518509378839869,-0.03580177736535922,0.04055799890890365,1.0410235207741687
2026-03-24 18:43:41.900000-06:00,0.08125864591884079,0.12502776177389832,-0.11421150953689589,0.04409636318212642,-0.16388476187077136,0.9788255214573786
2026-03-24 18:43:42-06:00,0.6576632591149882,0.21530604232842002,0.11001011558483274,-0.06767123329577374,0.11391095838028278,1.0661918494083098
2026-03-24 18:43:42.100000-06:00,0.28155559747722214,-0.03171336796969403,-0.0676436632285235,0.026921405372884732,-0.04459763221895347,0.9344537359852754
2026-03-24 18:43:42.200000-06:00,0.15635244451469157,0.277292214976572,-0.01573117935278612,-0.021298435245471183,-0.03140121244257724,1.122149171225648
2026-03-24 18:43:42.300000-06:00,0.0182623005817481,0.6487470542947897,0.05977291939653195,-0.07987229991893256,-0.04856804311360149,1.0061411287238762
2026-03-24 18:43:42.400000-06:00,0.026896259171072693,-0.29808269898487255,-0.18759152207940533,-0.009267258441975599,-0.0038063049053448598,0.9212995263418192
2026-03-24 18:43:42.500000-06:00,0.055297333951961174,-0.0503380053331158,-0.032396715494078,-0.01156033507874759,-0.07269900526683425,0.9590477125216051
2026-03-24 18:43:42.600000-06:00,-0.27173352775922466,0.06713378166856165,0.22081921961118223,-0.02771547878225487,0.01851022112546078,1.1616238164918704
2026-03-24 18:43:42.700000-06:00,-0.285622694804036,0.37234254307026354,-0.14190775647137402,0.653147710992031,-0.199285535835377,1.68795283812515
2026-03-24 18:43:42.800000-06:00,0.2349267078971922,0.5204776350741589,0.012695592276669405,0.12357029158785113,-0.08548658308392776,0.8868714362193003
2026-03-24 18:43:42.900000-06:00,-0.035803467035124124,-0.04932186832404542,-0.3744508777207303,-0.06942153844585051,0.17034586734511786,0.8866069146956402
2026-03-24 18:43:43-06:00,0.10424197865733967,-0.13895021235590135,-0.011609918779603637,0.022882023932739522,-0.11639579265090527,0.8873869680267982
2026-03-24 18:43:43.100000-06:00,0.3684988247770645,-0.182379507782984,-0.02606199874574906,0.03995717191905494,0.030550503994738274,1.0096870898828858
2026-03-24 18:43:43.200000-06:00,0.1011503887668062,-0.36533933606277375,-0.07785866121458399,0.2441706127984582,-0.06599167911570206,1.093630713852335
2026-03-24 18:43:43.300000-06:00,0.23083211902127637,-0.18169606338555983,-0.07336892822727435,-0.15134911514125618,0.2092680640177839,1.1766148888764258
2026-03-24 18:43:43.400000-06:00,0.17230224388552667,-0.06728409803551672,0.0004360587560481918,-0.11563323866967823,-0.7501159315362533,1.9006899118863223
2026-03-24 18:43:43.500000-06:00,0.34516088572550263,0.3668673502164348,0.05701574951690944,0.06945613435780826,-0.37565135046116666,0.9521072435541189
2026-03-24 18:43:43.600000-06:00,0.1369785400722979,-0.058821789296038915,-0.08906996170965621,0.08262146604599938,0.04113178812336527,0.9976039666960687
2026-03-24 18:43:43.700000-06:00,0.13343469992301144,-0.10253029321939705,0.0069703272779185555,0.07915031126837403,-0.004646704022270598,1.0139256973584252
2026-03-24 18:43:43.800000-06:00,-0.061976176370116196,0.3804274650364804,0.4915985785155991,0.3184811806274314,-0.17003845349839142,1.6921405168941481
2026-03-24 18:43:43.900000-06:00,-0.07299834805973499,-0.29143734098800306,0.006438187760346296,0.035849347126694645,0.040117348941789484,1.0129327493078675
2026-03-24 18:43:44-06:00,0.03192984760341197,0.15113170144748717,-0.17400144799702244,0.15497416141087936,-0.43362270500119815,1.2935953970010148
2026-03-24 18:43:44.100000-06:00,0.2555292582074409,1.1795837518418624,-0.14244612584317784,-0.15109725543381278,-0.017106759188917672,1.059093196963285
2026-03-24 18:43:44.200000-06:00,0.3324423426960277,1.2303420638036435,0.16472985168227683,-0.49201834469467143,0.11476895779904449,1.1926422376652577
2026-03-24 18:43:44.300000-06:00,-0.16505225535733406,-0.26664215608796077,-0.01098062845110206,0.06342625259390311,-0.011517847583017634,0.9470256591190672
2026-03-24 18:43:44.400000-06:00,-0.19574097168757937,-0.027649804979274273,0.011252241489193559,0.1152819668286316,0.033139805132231706,0.9611487313200738
2026-03-24 18:43:44.500000-06:00,-0.06487621155032555,-0.4702739467606165,0.0030492994039758737,0.07372121162680427,0.12476994692377108,0.9749636815834154
2026-03-24 18:43:44.600000-06:00,-0.31190933703150414,-0.29207369489071194,0.1887387538048161,-0.11838469813850808,-0.01646430738325524,0.8995622460269308
2026-03-24 18:43:44.700000-06:00,-0.2650033599649218,-0.04724652353250091,-0.10514987279040244,0.03356935344893519,-0.0284544752795297,0.9505488622516354
2026-03-24 18:43:44.800000-06:00,-0.39740935997511895,-0.02077245848480368,0.02855601352143699,0.004813356242957568,-0.04291154573682144,1.0363820642115298
2026-03-24 18:43:44.900000-06:00,-0.5372263719007001,0.12635012975888812,-0.040069949473061646,0.019336368688594004,0.012058878414137341,0.982763937736128
2026-03-24 18:43:45-06:00,-0.5457211687987233,0.10882140180387798,-0.06832877690138835,-0.0007778395272595151,-0.0779554016917092,1.030603763772542
2026-03-24 18:43:45.100000-06:00,-0.4713421300851973,-0.09645972885745897,0.15420988818811726,-0.029284893414162877,0.06815572902061356,1.12544809899405
2026-03-24 18:43:45.200000-06:00,-0.37179048910688156,0.09884886276149349,-0.04584160136234086,0.026225489846175832,0.19212114228610178,0.896425643823324
2026-03-24 18:43:45.300000-06:00,-0.4598224062243477,0.2259729163373833,0.10612380374541765,0.06015038774708993,0.01156110394477219,1.0167642365129785
2026-03-24 18:43:45.400000-06:00,-0.251508996446289,-0.06848135703833624,-0.014034304273120793,0.02763898986911941,0.06110035741053265,0.9809453289349575
2026-03-24 18:43:45.500000-06:00,-0.23523547796648192,-0.048759409176426204,0.00684244670708142,0.028201475529360157,0.18393541729336726,0.9792834984423835
2026-03-24 18:43:45.600000-06:00,-0.059695757470695915,0.2404522747319421,-0.007144206227406913,0.028158757577766112,0.06540173249784588,0.9894882278861793
2026-03-24 18:43:45.700000-06:00,-0.18723277571851757,0.5480264208470783,0.10762570296686431,-0.03468522890079691,-0.08973342578760335,0.9590202974512193
2026-03-24 18:43:45.800000-06:00,-0.15474065047697227,0.21702971962902723,-0.021080776819811048,0.09233764843244127,-0.04879171786491817,1.0927897702069513
2026-03-24 18:43:45.900000-06:00,-0.15602818495612672,-0.12890151070956954,-0.04291211065960344,0.020120183752861596,0.0716835076198294,0.9740161064175842
2026-03-24 18:43:46-06:00,-0.1242265503510373,-0.2192719634125823,-0.01871036286601439,-0.249703466525266,0.050606955484288715,0.9447513656549383
2026-03-24 18:43:46.100000-06:00,-0.07271716641258738,0.2004479919238476,-0.2233715896865902,-0.19580483651399813,0.5136180143066185,0.937864612278403
2026-03-24 18:43:46.200000-06:00,0.03404527030127515,0.35214971473438944,-0.001591264397118282,0.009081730254470186,0.06252828437845742,0.9893643571454065
2026-03-24 18:43:46.300000-06:00,-0.18026394334456722,0.07520864923291848,-0.00537925744265371,-0.0375060494664335,-0.08332164908505962,1.0224322775871477
2026-03-24 18:43:46.400000-06:00,-0.21637298159922094,0.16402632907261908,0.2607774316407744,0.07338898604518364,-0.04147732406071389,0.8952945705210239
2026-03-24 18:43:46.500000-06:00,-0.2777430315143296,-0.22808065955244658,-0.12717793538058358,0.10151402364721898,0.07448265207792672,1.0979319645342702
2026-03-24 18:43:46.600000-06:00,-0.27145381960200476,-0.06067206028562251,0.013683045688384923,0.03330981527840804,0.02340105846542907,0.9742120051189755
2026-03-24 18:43:46.700000-06:00,-0.19168805861328794,-0.028396322903336005,0.09746866259120088,0.03717504958370086,-0.2020006832098627,1.0000434337923758
2026-03-24 18:43:46.800000-06:00,-0.5947153207262419,-0.26130845905584477,0.014355707606573091,0.05889129315311546,-0.024171546858509314,1.0986503648034753
2026-03-24 18:43:46.900000-06:00,-0.3935351317728277,0.054557962199119986,-0.12472651721026039,0.1908321292184385,0.006930038290343798,1.1986314694620486
2026-03-24 18:43:47-06:00,-0.018556099177598873,-0.0069212371197095845,-0.05127482881514075,-0.04287090188800457,0.021744236818893304,1.007327813269567
2026-03-24 18:43:47.100000-06:00,-0.42583634574497914,-0.43681685386956814,0.014551078094966172,1.5511643629577887,-0.14457414101655508,1.444874005904157
2026-03-24 18:43:47.200000-06:00,-0.09137203836172395,-0.3219553364298716,0.00860904855378748,0.011889034481703744,0.14627533357466618,0.9515309584822544
2026-03-24 18:43:47.300000-06:00,-0.18630380405133254,-0.040270461370600565,0.022684099055232932,0.0626567992127791,0.043564461462375026,0.9193998949692301
2026-03-24 18:43:47.400000-06:00,-0.31944874141526414,-0.21166137263999432,-0.07990961541403027,0.04519272126567176,0.08777037010599952,0.9070696547750761
2026-03-24 18:43:47.500000-06:00,-0.030681502857754693,0.018278552818750543,0.12992625412347744,0.11754550330642982,0.010818447686008984,0.9655727694982487
2026-03-24 18:43:47.600000-06:00,0.035337368010482685,0.2848665650349508,-0.046265697256453533,-0.0008113677963422765,-0.011830574151213708,1.0226317345882643
2026-03-24 18:43:47.700000-06:00,-0.08030943288482816,-0.0032333847950115485,-0.0239902331581121,0.015405434067698953,-0.005367615036735276,0.9831542698067128
2026-03-24 18:43:47.800000-06:00,0.0743174580514243,0.18003938144014522,0.027760917336705195,0.10831655050399473,-0.2020603824955515,0.8693661342048509
2026-03-24 18:43:47.900000-06:00,0.031244475942345244,-0.06583929884313196,-0.0724534372084249,0.026461522538277604,0.09078829875645608,1.0125244094568482
2026-03-24 18:43:48-06:00,0.2756524909117793,0.37065495352643363,0.43366141342864284,-0.047634482723458056,-0.025150953689588196,0.8524016152304812
2026-03-24 18:43:48.100000-06:00,0.08521515910122214,-0.3433456073174836,-0.02614786904804393,0.02342584470741792,0.026999617606420157,1.0014769569628774
2026-03-24 18:43:48.200000-06:00,0.09633136290170446,-0.019957458459310774,0.04348324657247888,0.021703633758724954,-0.001087541617167944,0.99119883140522
2026-03-24 18:43:48.300000-06:00,0.01059591093798596,0.1241011150596789,-0.0405936277933851,-0.004800910606578191,0.004730881595651941,1.0439216755976815
2026-03-24 18:43:48.400000-06:00,0.17677881845482404,-0.10930847945016901,-0.2522979202887837,-0.0775928171189958,0.32689548418675085,1.0399299251018443
2026-03-24 18:43:48.500000-06:00,0.02027840088103481,-0.15971526464185018,-0.026511866947428533,-0.02698840174779359,-0.022613736597105027,1.0165418975899008
2026-03-24 18:43:48.600000-06:00,0.04926746136550199,0.07585913232347438,-0.028863900516486265,-0.009983459183309286,0.022655865152727987,1.0227369356508085
2026-03-24 18:43:48.700000-06:00,-0.010004813060525256,-0.1480889906339066,-0.05571827280467847,0.05557181402415708,0.00156698770732106,1.0001202857244829
2026-03-24 18:43:48.800000-06:00,0.08285244196540104,-0.05973915047442297,-0.011481843442969823,0.01773656039524201,0.014965150178705262,1.0102958115156553
2026-03-24 18:43:48.900000-06:00,0.10359105300994734,-0.16774281737392485,-0.02367476151387069,-0.019838048671054844,-0.04093818990175036,0.969906808135296
2026-03-24 18:43:49-06:00,0.17364463909693933,-0.08221531613751894,0.019044798172668548,0.0653533673578643,0.13943331922725907,0.947378190309637
2026-03-24 18:43:49.100000-06:00,0.15538427495627968,-0.03654014367801441,-0.03750912493053184,0.034203729102190855,-0.03019385824924924,0.9955141521314617
2026-03-24 18:43:49.200000-06:00,0.14991432344378558,-0.20350300051495668,0.020533174937414918,0.05181267813167596,0.017270005557453342,0.986271799238272
2026-03-24 18:43:49.300000-06:00,0.17602778726680365,-0.18536183100243203,-0.018315634798835485,0.023625213503082106,-0.05601517337724912,1.0147506049466435
2026-03-24 18:43:49.400000-06:00,0.12244113943089638,0.18482115707198687,-0.03677908664018804,0.03542686850249577,0.15073984490116404,0.9617831400121347
2026-03-24 18:43:49.500000-06:00,0.12081856699280591,-0.14097537895203766,-0.13287042975939797,0.02423942936680722,-0.02085762212376295,0.9621044699260197
2026-03-24 18:43:49.600000-06:00,0.008790017488133054,0.12379171276633713,0.08854112770415994,0.06794798478583411,-0.066817710431187,1.005310901276175
2026-03-24 18:43:49.700000-06:00,0.16859473928405727,-0.019872571163445214,0.013484368260313155,0.02587326966905109,0.018835571168543796,1.0007625968093081
2026-03-24 18:43:49.800000-06:00,0.08656809409941214,-0.20164217138370394,-0.03901519887015444,-0.16397709411470787,-0.02259383173662769,0.9207702324443108
2026-03-24 18:43:49.900000-06:00,0.0768270204402115,-0.11248594576129464,-0.0509543014179154,0.0226639820937833,-0.002499059311793535,1.0173163108706849
2026-03-24 18:43:50-06:00,0.1573640743781006,0.01136718145340152,0.09983596437111553,0.046558926850657455,-0.04668618131573983,0.8166890467182983
2026-03-24 18:43:50.100000-06:00,-0.8357855128917623,0.29823358639290687,0.13096291801991505,0.630032518750032,-1.1039215634288977,0.816733084182672
2026-03-24 18:43:50.200000-06:00,0.359940754488026,-0.11484398851799545,0.03464712414535035,-0.22775375892889008,0.14522199018013288,0.7529239118353361
2026-03-24 18:43:50.300000-06:00,0.24968426526897566,-0.16682168732441763,-0.18425957895917566,-0.12268226152661717,0.07593168921089262,1.0993815625111532
2026-03-24 18:43:50.400000-06:00,0.2528797499655846,0.0088025064624515,-0.047398051322317,-0.11813074801282802,0.2279385009151953,0.6893010457189764
2026-03-24 18:43:50.500000-06:00,0.2604120979131508,-0.07316361856495338,0.05658980793645129,0.005181922470976311,-0.011199383071691158,0.9759571882345144
2026-03-24 18:43:50.600000-06:00,0.12294132043052419,-0.12669185705618127,0.00415082418562914,0.0022306802016998834,0.022747859870598026,0.9950292220075154
2026-03-24 18:43:50.700000-06:00,0.1181071823711461,-0.06445685325773838,-0.0017906221798473486,0.04000481306052526,0.04609585230430372,0.965590696619131
2026-03-24 18:43:50.800000-06:00,0.12060391672997406,-0.14672342747013506,0.037031638734940066,0.12913009029587064,0.02319843167646445,0.9166423477946088
2026-03-24 18:43:50.900000-06:00,0.07013826841989874,-0.09114588977887456,0.005184664793787889,0.0799217316820729,-0.02152110659603431,0.9614213627487471
2026-03-24 18:43:51-06:00,0.0594623709421668,-0.11038151662392356,-0.014264489912457365,0.024473628609158072,0.060117515155532215,1.0426634844722715
2026-03-24 18:43:51.100000-06:00,0.0876272488566432,-0.08762019649931425,-0.0002303798442893343,0.03815475621134639,0.023204197151932626,1.0038024457383512
2026-03-24 18:43:51.200000-06:00,0.06098470527652155,-0.10847090494715321,0.004966051913752403,0.04137329669153076,0.014347903718395158,0.9928109667419559
2026-03-24 18:43:51.300000-06:00,0.04629498758495511,-0.09134370452703014,0.026178113830920856,0.02336701727909123,-0.012600292658553119,1.0000859008937812
2026-03-24 18:43:51.400000-06:00,0.0529567691311508,-0.03667776661755034,-0.008947470339004657,0.019572229048655767,0.04668176696425385,1.0048945062789028
2026-03-24 18:43:51.500000-06:00,0.046853709472653764,-0.0453300464480735,-0.018574606007148213,0.007131293561001979,0.01385404495928783,1.0090925708575305
2026-03-24 18:43:51.600000-06:00,0.03638634498019202,-0.039373965625366464,0.0013139139257544626,0.05944465439268252,0.02394096556928207,0.991949024998343
2026-03-24 18:43:51.700000-06:00,0.02873038805300485,-0.014976937078411079,0.006242525225229819,0.007869612966711365,0.007046936517567162,0.9684154874498427
2026-03-24 18:43:51.800000-06:00,0.027894240132970996,-0.09686156842550718,0.0031253470859059925,0.05646876150367354,0.07923256769641009,0.9360916128341484
2026-03-24 18:43:51.900000-06:00,-0.005476575079155471,-0.14699048094915187,0.00025926240867166667,0.04195457725115101,-0.012097515461447059,1.0160007244369893
2026-03-24 18:43:52-06:00,0.08597616515323786,0.16576676031060558,0.0072049864122814625,-0.0449231633636359,-0.08256275690475343,1.0264400401768188
2026-03-24 18:43:52.100000-06:00,-0.007617109818337556,0.12085296202066965,-0.09735964880973626,0.02732010931357803,-0.012577964952353768,0.993937685142225
2026-03-24 18:43:52.200000-06:00,0.046796558457781204,0.2586140629062932,0.044235069060280525,-0.02166455721372742,0.06047694166713405,1.0095399203601638
2026-03-24 18:43:52.300000-06:00,0.022674400534331295,0.29434211478945416,-0.00729620410639719,-0.03585040049354265,-0.025637123788449675,0.9946422397046901
2026-03-24 18:43:52.400000-06:00,-0.021545825536753122,0.3492219055436872,-0.08350865586107387,0.014835824669994342,0.1601891063716968,1.1004397179464958
2026-03-24 18:43:52.500000-06:00,0.03560507410787578,-0.15326649773368073,-0.10151455695879837,-0.038594074225143146,0.04883449496005261,0.9332495531093697
2026-03-24 18:43:52.600000-06:00,0.02054646081995381,-0.1542889365889473,0.013805771593765457,-0.003527460447757388,0.002520932224561912,1.0200222940555643
2026-03-24 18:43:52.700000-06:00,0.10098305741512137,-0.5623658435857302,-0.1006087909734721,0.02778793981634913,0.035325824822951726,0.975287809802532
2026-03-24 18:43:52.800000-06:00,0.0926129718099453,-0.14109965176691328,0.03762446095251692,0.07092802333110697,0.06082364925841139,0.9980335874126232
2026-03-24 18:43:52.900000-06:00,0.09265338724233046,0.1762979406831079,-0.020142141302075634,0.023551616505126622,0.07862106835667634,0.9678991225341989
2026-03-24 18:43:53-06:00,0.1404144330632785,0.2149450933805122,0.08873786053341355,-0.13742543294601114,0.025516899246939572,0.9733331830951447
2026-03-24 18:43:53.100000-06:00,0.14011179148842878,0.40856946051913756,0.2146886245557861,0.03569021021449731,-0.27156345948922417,0.9587683663636412
2026-03-24 18:43:53.200000-06:00,0.07017361688242162,-0.08945914659950135,-0.18570345632810392,0.015714387685907015,0.16052414840949764,1.1804305037907952
2026-03-24 18:43:53.300000-06:00,0.33983462242457924,-0.30906318671513716,-0.025264665303646,0.04440437866141851,0.01071216980314378,1.0095607297089222
2026-03-24 18:43:53.400000-06:00,0.35451122452621436,-0.11274473953898631,0.005929096072563006,0.01758877904279242,0.012704736071951182,0.996666948448247
2026-03-24 18:43:53.500000-06:00,0.28834701962443854,-0.06122246944675297,-0.024987023091473645,0.06404999668592232,0.04578946939066858,1.0260580310299643
2026-03-24 18:43:53.600000-06:00,0.3749436351863277,0.061681114345877544,0.009439544084881178,0.015639367164118238,0.010664889641212857,1.0000495271066063
2026-03-24 18:43:53.700000-06:00,0.9130452295126267,1.2683203744397935,0.2975552507737097,2.789716060020496,-3.2402673695910433,2.2210127617484057
2026-03-24 18:43:53.800000-06:00,0.38237201286881867,-0.147496657880112,-0.9642014347407117,-0.38627601290960734,-0.21484334609678127,2.1055114641595245
2026-03-24 18:43:53.900000-06:00,-0.32285731620889907,-0.05219142112750022,-0.17649691790774627,-0.04155668857356997,-0.04833658180928247,0.943205936787792
2026-03-24 18:43:54-06:00,0.16829765516256825,0.029430404878322363,0.08898798264443006,-0.09887965207282812,-0.14539140073317597,0.995530991725003
2026-03-24 18:43:54.100000-06:00,0.006774454477318962,-0.3079903534846252,-0.11486764593413654,0.04147654662907313,0.021900363528829937,1.0085176691326803
2026-03-24 18:43:54.200000-06:00,0.011247054804647867,-0.21036611890910759,0.025844358674980753,-0.014358054789352122,-0.024849882477706493,0.9932826622750889
2026-03-24 18:43:54.300000-06:00,0.01292209877990955,-0.21147239883140523,0.02149981696093977,0.02007890156169538,0.0021203774989420306,0.9888431645872955
2026-03-24 18:43:54.400000-06:00,-0.12670102430493593,0.10943099835315832,-0.04368931490366231,-0.12675396797071378,0.022694997782117223,0.961922248678193
2026-03-24 18:43:54.500000-06:00,-0.11173048900490995,0.15676087144947562,-0.06584176043807008,0.03798148603243718,0.07766213742715404,0.9790727822447013
2026-03-24 18:43:54.600000-06:00,0.06440983108400933,0.5184151570617898,0.05976718247311774,-0.06861883109930507,-0.20432615623072103,1.0337798493879156
2026-03-24 18:43:54.700000-06:00,0.015420785895285343,0.30340905406025503,-0.03464245690424355,-0.009015786226693112,-0.017075046014694107,0.9940505116426099
2026-03-24 18:43:54.800000-06:00,0.10330772486017141,0.22572505391749476,0.016234242070431802,-0.006317723177639658,0.0025979513901281366,0.993925700417574
2026-03-24 18:43:54.900000-06:00,0.0809507426083321,-0.03205488928431218,-0.0030673874360765403,0.011952261985489439,0.0005178893913823798,0.9883394222287937
2026-03-24 18:43:55-06:00,0.03518280452550056,-0.1145801369478874,-0.09409669560961186,-0.09862280697281947,0.08694713791151923,1.0384987085294164
2026-03-24 18:43:55.100000-06:00,-0.056059765567242646,0.0041794978917367295,-0.0808183936410497,-0.012687234682587834,0.08902850586081892,1.10494742853064
2026-03-24 18:43:55.200000-06:00,-0.08820560538002274,-0.03820083004899737,-0.005524545486990971,0.00030460452855969556,0.02313382959522365,0.9942736086227203
2026-03-24 18:43:55.300000-06:00,0.001638631642813805,-0.16405173020348437,-0.05275727491039244,-0.0021266316530109673,0.05766772547200112,0.995024307995085
2026-03-24 18:43:55.400000-06:00,-0.04414264810103349,0.13263525260919887,-0.008520358634192104,-0.017772353454033742,0.08336575690985201,0.997513439859687
2026-03-24 18:43:55.500000-06:00,-0.03322689807426593,0.20843044260782226,0.006064562108365242,0.0062648977989425555,0.01623256667669388,1.0026314757842891
2026-03-24 18:43:55.600000-06:00,0.10859966451336593,-0.16082435898089562,-0.0665569180097179,-0.05528566431961985,0.06145535937348635,1.0475588911605902
2026-03-24 18:43:55.700000-06:00,0.1601653877725829,-0.05172627349808549,0.009517050164939098,-0.002236380415330407,0.018054273375719545,0.9930179643405241
2026-03-24 18:43:55.800000-06:00,0.15768419388884075,0.036969655284934205,-0.04383606022443954,0.020130809195800802,0.02189534958421071,0.9973880377091054
2026-03-24 18:43:55.900000-06:00,0.1982294259507579,-0.012347744642665947,0.038248402869481425,-0.012728424079578656,-0.03663525566834751,0.9910046040187018
2026-03-24 18:43:56-06:00,0.1312096485548072,-0.16978490106203445,-0.023033607806947326,0.004576353800737249,0.009720893475345813,1.005072632346418
2026-03-24 18:43:56.100000-06:00,0.032787282099391746,-0.03021401497963117,0.010988505758847314,0.006618716891089209,0.01777001524475738,0.9947794680140516
2026-03-24 18:43:56.200000-06:00,0.08055952848322312,0.17223834846762145,-0.029235484084779207,-0.012239525220131236,0.034734644348477825,1.0132874284286684
2026-03-24 18:43:56.300000-06:00,0.1494021301871689,0.3629438697210567,0.051318788781082224,-0.022217128173229385,0.02184414657400845,0.9179102037902853
2026-03-24 18:43:56.400000-06:00,0.06687575879632698,0.07287368877241465,-0.32822363396266824,-0.1549597630179521,-0.04261768901714654,1.1339726512111679
2026-03-24 18:43:56.500000-06:00,0.09340779980931307,-0.10044823665573871,-0.1404113127316668,0.022858203362004354,0.0027872362121621535,1.0544352658655096
2026-03-24 18:43:56.600000-06:00,0.11233724054595608,0.003697430315143296,0.0053570849372619606,-0.012358236502781282,-0.0725054289691179,1.0097439944323496
2026-03-24 18:43:56.700000-06:00,0.22474997068315888,-0.42784950008412664,-0.04101607174723275,-0.2398169711369326,-0.19355750434654032,1.1049170980916012
2026-03-24 18:43:56.800000-06:00,-0.0018024666935191936,-0.2167855281875054,0.034224971830339616,0.012416466887265274,0.07526551880611623,0.8896200720939363
2026-03-24 18:43:56.900000-06:00,0.029365685529717078,0.20014913349614802,-0.011034309371701856,0.01583531583160407,0.04025185970744344,0.9588523716049823
2026-03-24 18:43:57-06:00,0.09144196030244783,0.2990795021745448,0.07724493073577623,-0.08302396027185635,-0.09357049553109366,0.935233132619192
2026-03-24 18:43:57.100000-06:00,-0.015120725222170672,0.35552381292286356,0.09076469538527429,0.055014725721831616,0.0795281875054173,1.139117374434695
2026-03-24 18:43:57.200000-06:00,0.02122674205768535,0.04802956157301423,-0.116723029780812,0.04434826061906971,0.08909844850178195,0.9874980650884859
2026-03-24 18:43:57.300000-06:00,0.11188444575874536,-0.2239306898890039,0.07085750587611468,0.03854155088638831,-0.03257431436831131,0.9466834484762893
2026-03-24 18:43:57.400000-06:00,0.08007683867579653,-0.6258312063752658,-0.147830043898783,-0.00980483957314679,0.042244211835846035,1.02354601214482
2026-03-24 18:43:57.500000-06:00,0.05004424956534597,-0.10632816507166055,-0.06174695130345225,-0.013200247791039756,0.11871116538267401,0.9860190523777234
2026-03-24 18:43:57.600000-06:00,0.02189368438763492,0.44812730137202816,0.03671957090341758,0.04148531455695881,0.033955672936221856,1.0570103980462238
2026-03-24 18:43:57.700000-06:00,-0.03633544176655637,0.18515248326390765,-0.3308415004104358,-0.0012405602320874139,0.23312453284250995,1.2025315270760149
2026-03-24 18:43:57.800000-06:00,0.09939951665451506,-0.10358681099050136,-0.15505700723488655,-0.032421513972661416,0.03221681206120338,1.0039940040686677
2026-03-24 18:43:57.900000-06:00,0.03893594958523044,0.022318458393029223,-0.06520109313578032,0.021454051077585103,-0.05666146033558861,1.0347961128417962
2026-03-24 18:43:58-06:00,0.040340401666216295,-0.6349938460126547,0.0008383725329240872,0.16882859080317947,0.0240788342604253,1.0192036397750508
2026-03-24 18:43:58.100000-06:00,0.43487776151896934,-0.03467995186939475,0.07749232918478788,0.02237823313771773,-0.2242040401156358,0.9050957105637502
2026-03-24 18:43:58.200000-06:00,-0.10906771425512281,0.28793405495250673,-0.03254550432614603,-0.007381287187775631,0.01920095037551049,0.9829864806024484
2026-03-24 18:43:58.300000-06:00,0.048216661143203846,0.5895264947765038,0.18519922705511058,0.031937336399280085,-0.00850147603921825,1.0509048451815861
2026-03-24 18:43:58.400000-06:00,0.016833073475651727,0.031833551722555614,-0.11562608026186313,0.014886928767723944,0.0022044500415534353,0.997259053805326
2026-03-24 18:43:58.500000-06:00,0.016163323866967824,0.041797718894831574,-0.02100297859105811,0.02458467570475137,-0.07821471858381814,1.032383011527892
2026-03-24 18:43:58.600000-06:00,-0.03189619900781613,-0.10639830115278918,-0.0369509230981018,0.01579219917097072,0.01947330229996992,1.0012999107748313
2026-03-24 18:43:58.700000-06:00,0.12205260715942753,-0.3684768498926749,-0.08804185935054275,-0.03421260471210862,0.08494883573901381,1.0446439609856577
2026-03-24 18:43:58.800000-06:00,0.10929708922007006,-0.10923017544217443,-0.0803092085472613,0.024048915786736562,0.17773317493741492,0.9700552482244192
2026-03-24 18:43:58.900000-06:00,0.07653026262791066,0.26742774545843895,0.11202790963274921,0.01954473749955387,0.015856250605456507,1.0574641187357559
2026-03-24 18:43:59-06:00,-0.18642498712608283,0.20630929012455837,-0.24293476365527475,0.03276599042486477,0.30676173820825664,1.1629368030877008
2026-03-24 18:43:59.100000-06:00,0.052855399142418664,-0.23808288253379084,-0.0016413469431457227,0.0310196040441945,-0.06112213650940947,0.9784953184828663
2026-03-24 18:43:59.200000-06:00,0.04449756032896045,0.17218081607888527,-0.06703401773286495,0.008877438268929764,-0.021083815574125732,1.1000079690822044
2026-03-24 18:43:59.300000-06:00,0.022060558906456335,-0.06557681777161416,0.01573312497132048,-0.013032558518964173,-0.011832182243681584,0.9955248479348198
2026-03-24 18:43:59.400000-06:00,-0.008416900776513898,-0.0916062773730071,-0.02559530726598788,0.03165790152600532,0.026458275761855467,1.0277643456226133
2026-03-24 18:43:59.500000-06:00,-0.05713448017416753,-0.08126137875829158,-0.02470160044459627,0.07067647973568957,0.008427379380318466,0.9999696073582722
2026-03-24 18:43:59.600000-06:00,-0.0673337235447375,-0.0555257401865061,0.008810156883339368,0.02402372471741115,0.011483738075693532,0.993358881473286
2026-03-24 18:43:59.700000-06:00,-0.0734129330607292,-0.09294903968225643,0.029579254893363178,0.023819932392815085,-0.05869695563724617,1.004004792666201
2026-03-24 18:43:59.800000-06:00,-0.0438398127801033,-0.12563012853522865,0.04923389332748696,0.009923811903147357,0.018331132445840326,0.9927071364839166
2026-03-24 18:43:59.900000-06:00,0.25389574421438516,-0.1099257544625331,-0.06630864770334416,-0.0932217423890931,0.11901475468177207,1.0168106030091826
2026-03-24 18:44:00-06:00,0.12055980380660064,0.017364813672354984,-0.1056009034685647,-0.025216796765460188,0.05644518770426191,1.0283479169747058
2026-03-24 18:44:00.100000-06:00,0.049013328710619836,-0.02449416263453881,0.02343232398423519,0.03766767856505535,0.05737316310870685,0.9805666970882004
2026-03-24 18:44:00.200000-06:00,-0.08993836529293897,-0.04972442169344272,-0.04139738034904886,0.03253736699076647,-0.0025525770777992474,1.0293534101859454
2026-03-24 18:44:00.300000-06:00,-0.10462522879882528,-0.02357755400671993,0.03292408926595729,-0.0072487750658991705,0.03077555434322628,1.0173129437677495
2026-03-24 18:44:00.400000-06:00,-0.050438214884797564,-0.01599691841760438,-0.04624790320853707,0.01957221477262878,0.022462918529773165,1.0037649962015571
2026-03-24 18:44:00.500000-06:00,0.0070400615908592645,-0.042444191441521825,-0.023801281783279716,-0.05419306287060311,0.02231419088067791,1.0291423513636155
2026-03-24 18:44:00.600000-06:00,-0.01670120377498942,0.00771488326798652,-0.01571532786425538,0.015420203739299355,0.008877116038606457,0.9963514268379111
2026-03-24 18:44:00.700000-06:00,0.024922281309111675,-0.05380273080001836,-0.000522900990654301,0.02387771971060454,0.034709730641962346,0.9590159643711157
2026-03-24 18:44:00.800000-06:00,0.002686256978682833,-0.034320122569888804,0.03153461375699143,0.02250674368923129,0.012482121825495966,1.0037573564876896
2026-03-24 18:44:00.900000-06:00,0.01939124369687916,-0.07183507109971296,-0.019405393279050442,0.011962755885037197,0.0762270712220789,0.9786304089571872
2026-03-24 18:44:01-06:00,0.08136034221676108,0.03413558350710997,-0.005849450118032152,0.0028196580891537877,-0.01931258380792625,1.0140574518311554
2026-03-24 18:44:01.100000-06:00,0.05220378008800151,-0.025455628578566588,0.05240543304798275,0.015079221752586261,0.04924562924138213,0.9261566141342865
2026-03-24 18:44:01.200000-06:00,0.010162852758077427,-0.014764853441287291,-0.030828984413637683,0.12391514533505325,0.04526485497086161,1.1070520575323888
2026-03-24 18:44:01.300000-06:00,0.005665120097076984,0.013127017890920958,-0.04555014913349615,0.10291488428770273,-0.11133701824782163,1.076877156827255
2026-03-24 18:44:01.400000-06:00,0.044734998190003726,-0.01871906410445973,0.028613002401431685,0.0471310049813137,0.0026760647111908737,0.9894770691316607
2026-03-24 18:44:01.500000-06:00,0.030008208715514472,-0.04004237940581137,0.003209758072328471,0.021536793910254783,-0.01674862159860911,0.9714482546027441
2026-03-24 18:44:01.600000-06:00,0.08141850682954935,-0.0929752718818353,0.008225697868283257,0.027283496402951055,0.010503270739753125,0.9974813478608905
2026-03-24 18:44:01.700000-06:00,0.5108419592827317,-0.12108012420143474,0.06776551625682573,-0.3091149577072701,0.10003512412495602,0.9316585480260845
2026-03-24 18:44:01.800000-06:00,0.19330379895275146,-0.014328516873754034,-0.027598901765638624,0.040631194138671216,0.0021895167055008594,0.9975598976204922
2026-03-24 18:44:01.900000-06:00,0.08630067352255869,0.08761745754156619,0.08415904921660303,0.027403323255138102,-0.004901453605461595,1.0217709574625382
2026-03-24 18:44:02-06:00,0.0437566824552727,-0.038961429234244116,-0.08160950579453738,0.0540263219346056,-0.013437575522732025,1.0408955005022102
2026-03-24 18:44:02.100000-06:00,-0.05757226473872321,0.03765203611834827,-0.009949413918106591,0.06080526479480761,0.008280965467310449,0.9777754299378483
2026-03-24 18:44:02.200000-06:00,0.019829338255163587,-0.1353596997955469,0.0143198237930384,-0.10675433710798286,0.10473770043796811,0.9591180984332062
2026-03-24 18:44:02.300000-06:00,-0.002006062314857775,-0.022104688145289167,0.01483854323341814,0.052270063783249124,0.024422688175880652,0.9556104888009668
2026-03-24 18:44:02.400000-06:00,-0.021626107794200874,-0.010826872581360608,0.014722040656085412,0.035229107799299456,0.013937872566064866,1.0111149169186218
2026-03-24 18:44:02.500000-06:00,-0.00026392422488821364,-0.05370983465301606,-0.01590194612839247,0.039547926407080915,-0.004667164628084003,1.0196569491110625
2026-03-24 18:44:02.600000-06:00,-0.018636249891655153,-0.05499363187224996,0.006352609708718064,0.03791225036072461,-0.00826337230348794,1.005576438437183
2026-03-24 18:44:02.700000-06:00,0.06898648366159699,-0.03380104316968588,0.005641437188030571,0.019890520208226046,-0.015852956922088584,0.9954905497799963
2026-03-24 18:44:02.800000-06:00,0.023024949396582933,-0.022096889355692314,0.0058868905283659565,0.03870704878832221,-0.004560110741180729,1.0012841617677801
2026-03-24 18:44:02.900000-06:00,0.061520880219035054,-0.007374248086757456,0.019022236951456408,0.03504212141760948,0.05410025034033029,0.948681821009213
2026-03-24 18:44:03-06:00,0.06932307158917674,-0.016706102491676568,-0.013147891481800617,0.0031449271667694898,-0.013732897574604988,0.991587929619187
2026-03-24 18:44:03.100000-06:00,0.03555756960837799,-0.03697661484808778,0.0018854387583935393,0.04660943237497004,0.02983961495515798,1.002113582314042
2026-03-24 18:44:03.200000-06:00,0.06934842785252865,-0.011410605048614972,-0.033331752433297814,0.01342857550743628,-0.02531139685825435,0.981515790815416
2026-03-24 18:44:03.300000-06:00,0.12242589467351236,-0.06938759923113398,0.0017808001713123238,0.01695911447844066,0.007838596258661212,1.0106361821824985
2026-03-24 18:44:03.400000-06:00,0.09828293657875013,-0.04377556046152356,-0.00035864957962199125,0.06153707331249713,-0.006549439411011919,1.0105185920676278
2026-03-24 18:44:03.500000-06:00,0.1079843473561308,-0.04230709059668694,-0.0008408037403190693,0.06854964743311937,0.03358409038764512,0.9881868393386121
2026-03-24 18:44:03.600000-06:00,0.11310787067958988,-0.038281584435051724,-0.014428157423788961,0.04152713719771787,0.015467584751163749,0.9946981782769856
2026-03-24 18:44:03.700000-06:00,0.10837800880015093,-0.0033402797081572197,-0.027972041420872572,0.050709987610448,0.0049262797183543825,1.0075710890059297
2026-03-24 18:44:03.800000-06:00,0.15385033625142125,-0.07713385304869655,0.00639899659924643,-0.003851335573309947,-0.09445914761921759,0.9215329679350237
2026-03-24 18:44:03.900000-06:00,0.10651758755538335,-0.07596833781158704,-0.011125041680900206,0.03890641554455396,0.08780233820927637,1.0092680364854463
2026-03-24 18:44:04-06:00,0.16421691403282468,-0.036962732431564296,0.009470954913247644,0.07990509501205814,0.06709673333911173,1.0033730845905586
2026-03-24 18:44:04.100000-06:00,0.15005946984954088,-0.09435238333171879,0.007885720404011564,0.08381453401518357,0.014442379405811362,0.9267563846981385
2026-03-24 18:44:04.200000-06:00,0.16721212646520475,-0.07722814620691061,0.02964470231934453,0.017983868089510673,0.07710614620691061,0.9908852441965402
2026-03-24 18:44:04.300000-06:00,0.15154303457347823,-0.03523164077437249,-0.004152088633733232,0.09038297481810813,0.05481264142189229,1.07525108778227
2026-03-24 18:44:04.400000-06:00,0.18348251441623797,-0.042103279917199046,-0.0038092903285015787,0.02507649401171652,0.038138279636777093,1.010797303564418
2026-03-24 18:44:04.500000-06:00,0.14797436433440572,-0.04786551472725141,0.013122898237420527,0.14818064272712905,0.05213551498218047,0.9708680670769324
2026-03-24 18:44:04.600000-06:00,0.2023158468998078,-0.07909657630281493,0.005127191242677163,0.0931071568782408,0.037311575308591624,1.0070457730213682
2026-03-24 18:44:04.700000-06:00,0.15938205197493538,-0.0649696787384071,0.010612545976454753,0.06704994060153059,0.012631673405291302,0.9812474673818277
2026-03-24 18:44:04.800000-06:00,0.24751960149490398,-0.09568386350078774,0.010474843091167729,0.07224241713531122,0.04175986295014098,0.9768711925071252
2026-03-24 18:44:04.900000-06:00,0.243263530359501,-0.08303837701967542,-0.02013037479669408,0.0528914767020338,0.0755963769482953,0.9986313919636165
2026-03-24 18:44:05-06:00,0.196363243309387,-0.06051368204228764,-0.014975176028511266,0.11180876242141811,0.03294168141006358,1.0167171572351417
2026-03-24 18:44:05.100000-06:00,0.2200252685677576,-0.08560232699239802,-0.10324129034889593,0.22984971422453132,0.032776326268399505,1.003418313083469
2026-03-24 18:44:05.200000-06:00,0.2514314368311299,-0.0694228171699816,-0.00555760978519678,0.0320355677015087,0.07607181759316384,1.0099836880076274
2026-03-24 18:44:05.300000-06:00,0.18323185797392588,-0.15477951186184885,0.014192526499875086,0.05369214767530198,0.05736251421229473,1.0103025355243636
2026-03-24 18:44:05.400000-06:00,0.26393545196371854,0.08773422728454672,0.0391315077014067,0.18514657910703453,-0.17026722785048923,1.0569164801435762
2026-03-24 18:44:05.500000-06:00,0.250753988365038,-0.02343350277617739,-0.04137549927855078,0.04607200216179841,0.0883375015933066,1.0173144794603663
2026-03-24 18:44:05.600000-06:00,0.2561708126628359,0.04510860283583079,0.012550887408034344,0.03479919238475934,0.02656639831134995,0.9790041288309466
2026-03-24 18:44:05.700000-06:00,0.1360264922272132,-0.047939392147165444,0.019330900970259978,-0.02335949585230432,0.09759339223893991,0.9382471710522962
2026-03-24 18:44:05.800000-06:00,-0.0012664084065404598,0.12875344791544513,0.11192793665522885,0.0044994084626248515,-0.03280044663570128,1.0293211137340479
2026-03-24 18:44:05.900000-06:00,-0.1403388313032483,-0.02660921211626804,-0.07731815655703018,0.050790830711812895,0.07620221278418217,1.0302601907889035
2026-03-24 18:44:06-06:00,-0.1741210097229941,-0.09726844539164752,0.06626673328812592,0.00789600934060052,0.06567044403542494,0.9341333013822253
2026-03-24 18:44:06.100000-06:00,-0.2107386008473842,-0.09247113336358491,0.0026573910560690962,0.04109759194016306,0.0740491319665737,1.011040660776106
2026-03-24 18:44:06.200000-06:00,-0.19976719878857715,-0.12119115090270378,-0.019023403506804055,0.0505612008178124,0.06379015260053127,1.000696451897437
2026-03-24 18:44:06.300000-06:00,-0.11908272447777783,-0.07428841143509761,0.020956688573569977,0.043015725043720324,0.027196411618646534,1.0239123543717785
2026-03-24 18:44:06.400000-06:00,-0.09015700570531221,-0.06785370131492406,-0.007475042955545472,0.011040001427602699,0.03723170195734528,0.9780460330490025
2026-03-24 18:44:06.500000-06:00,-0.105925275195913,-0.06325331790162798,0.0005296110598420461,0.06359127428836556,0.04989431661168697,1.0185364308606915
2026-03-24 18:44:06.600000-06:00,-0.042390212763787835,-0.14911441725767718,-0.05030663274410732,0.03891321256494318,0.07573141694666374,1.042105667072854
2026-03-24 18:44:06.700000-06:00,-0.08695004920130728,-0.04768234820249525,0.02006269011334146,0.030281043985458847,0.046279348197396666,0.9547783616219606
2026-03-24 18:44:06.800000-06:00,-0.16430662866524248,-0.01534127046442975,-0.03313511749680065,0.024555633167289564,0.040046270642880084,1.004133164740253
2026-03-24 18:44:06.900000-06:00,-0.12984179102955648,-5.7081368255214576e-05,0.010648916806452765,0.0011317830247841996,0.014331081154114814,0.990422091132038
2026-03-24 18:44:07-06:00,-0.13643009590430982,0.014491247265885906,-0.0024100900919274168,0.016138100166723606,0.03937175386090051,0.9966491523608981
2026-03-24 18:44:07.100000-06:00,-0.10018377631505153,-0.04123927946852391,-0.0020515377830349815,0.031192775310631055,0.0397142793920452,1.0114185489438292
2026-03-24 18:44:07.200000-06:00,-0.07474342410507157,0.01264815344689573,0.016930146380262374,0.004288419592827316,0.008152846894709203,1.0243398081913804
2026-03-24 18:44:07.300000-06:00,-0.06918924403338551,-0.04007118332967935,-0.05468073807059495,0.02234124497152443,0.041291183329679355,0.9931047666634376
2026-03-24 18:44:07.400000-06:00,0.045145593041456565,-0.054326492737071276,-0.0019129597772939793,0.030677404618294733,0.01790949304808472,1.0026789705964831
2026-03-24 18:44:07.500000-06:00,0.05698239052071808,-0.07293494720419308,0.02197389934381262,0.03335861277806387,0.03840894699005267,0.9856851891318645
2026-03-24 18:44:07.600000-06:00,0.08149602973492477,-0.030279750985300793,-0.07325845217276032,-0.142008029245461,-0.050362252145227986,0.9600763767443522
2026-03-24 18:44:07.700000-06:00,0.14716380211387173,0.001428289375066919,-0.02229112184079171,-0.014854797509853012,-0.02851228849811098,0.9893242065333219
2026-03-24 18:44:07.800000-06:00,0.007316857438574845,0.03272004609117283,0.021042849494985548,0.027392144106295223,0.033403957518622567,1.0036350986320508
2026-03-24 18:44:07.900000-06:00,0.05799390617591125,-0.030960707275165325,-0.012820749185501676,0.027772094446115655,0.02943570719868661,0.9667997328343523
2026-03-24 18:44:08-06:00,-0.12042381445243788,-0.09161209587371835,-0.0009221028587744032,0.003669815890237751,0.033540093711919974,0.9997360709314598
2026-03-24 18:44:08.100000-06:00,-0.2197046188045867,0.02418995579530217,0.07385438860365161,0.020783611121025024,0.015704044704358773,1.0095055763181107
2026-03-24 18:44:08.200000-06:00,-0.1406418705674211,-0.03418889631015689,-0.06585712756139966,0.04035786940494461,0.06670189514258182,1.0224592291965147
2026-03-24 18:44:08.300000-06:00,-0.06070994988094813,0.01834874906313573,-0.02178980997588371,0.03948194949345597,0.0001342507380196091,1.0150527488999812
2026-03-24 18:44:08.400000-06:00,-0.0458435449414428,-0.11955492446452153,0.24173137615801524,0.02418854552777962,0.42229793048594577,0.5599916383270537
2026-03-24 18:44:08.500000-06:00,-0.04008193419771278,-0.07223404526520269,-0.006135650196550301,0.015254934151825548,0.015504040625493924,0.9956166656299551
2026-03-24 18:44:08.600000-06:00,0.007291063716967568,0.10628674419908941,0.10654022525531145,-0.0025940636200945276,-0.2214547475437586,1.1467047666634376
2026-03-24 18:44:08.700000-06:00,0.0433002197488439,-0.09434593872525276,-0.007571610080914482,-0.00932322046774383,0.016997935074668718,0.9892446584715474
2026-03-24 18:44:08.800000-06:00,0.2213306684749634,-0.11490270377753872,-0.0033181891879489936,-0.12305966869420237,0.09800570327277919,0.9882851248897433
2026-03-24 18:44:08.900000-06:00,0.09577380654963724,-0.006959014546251779,-0.057564229374964956,-0.026538807849775404,0.02532001549968644,1.0438122345551235
2026-03-24 18:44:09-06:00,0.09275333982552655,0.018390028195153292,0.03791970448624148,0.029307669795495907,0.026993973477181302,0.9994462665640153
2026-03-24 18:44:09.100000-06:00,-0.010718427801542831,0.0012745619554078102,0.006743837090137815,0.01968542774545844,0.050819441603401766,0.9953031412357942
2026-03-24 18:44:09.200000-06:00,-0.05562227672038871,-0.02643894296217363,0.013098197651593563,-0.02447072139823488,0.022107943079440993,0.9752847873636767
2026-03-24 18:44:09.300000-06:00,-0.030937331300699016,-0.0018753887413132924,-0.013027303921318699,0.027216331265008952,0.010598388950355116,0.9954933856107846
2026-03-24 18:44:09.400000-06:00,-0.07059259176171272,0.00785739064818261,-0.013177260328450595,0.06132059163934678,-0.035856391326293896,1.0210192349069254
2026-03-24 18:44:09.500000-06:00,-0.04647926662009963,-0.046369483972610426,-0.00952366302458026,0.06301026752254847,0.02861848337607644,1.0083376310972658
2026-03-24 18:44:09.600000-06:00,0.051226055788674014,-0.09349114631398082,-0.01245276419572433,-0.01682205646168672,0.01955914710935947,0.999981838854247
2026-03-24 18:44:09.700000-06:00,-0.06393666542601194,0.24651722045754668,-0.04252467458306354,0.6317246460310096,-0.5043642120397893,1.3808646785599568
2026-03-24 18:44:09.800000-06:00,0.11158224266186723,0.015928570918713324,-0.026515562398984362,0.007367755553629415,0.03561643170705593,1.001661611253588
2026-03-24 18:44:09.900000-06:00,-0.013620364752489383,0.08181896468212897,-0.017388766806197838,0.0441203662820637,0.012792039075525282,1.0185207537742247
2026-03-24 18:44:10-06:00,0.008551102568155283,-0.14700628655045303,0.020997240647927684,0.05037490172484997,0.1618902866932133,0.983672804678458
2026-03-24 18:44:10.100000-06:00,-0.0705041476956963,0.029101999153635545,-0.03821524169823538,-0.019348850015040817,0.11217400233515015,1.026293229594204
2026-03-24 18:44:10.200000-06:00,-0.1493348289171124,-0.0007589819561216114,-0.005361947250080303,0.007082826449399137,0.02625698382220228,1.0069819703976384
2026-03-24 18:44:10.300000-06:00,-0.030816083983827305,0.010934614776707643,0.0005034514334660665,0.003183084947459123,-0.0008086145625672376,1.0057526095047749
2026-03-24 18:44:10.400000-06:00,-0.0038733598119643302,0.004697044964386411,0.0396005343312956,0.016683359149148792,0.023972955494485883,0.9606775422799835
2026-03-24 18:44:10.500000-06:00,-0.01003192017661485,-0.03834757027119353,-0.03791513411817492,0.021377920594698497,0.017851570108038933,0.9918941177670254
2026-03-24 18:44:10.600000-06:00,0.0019524210612186631,0.01676696629328058,0.02306161533245298,0.018970580167539372,-0.007799966349364972,1.0033244594229427
2026-03-24 18:44:10.700000-06:00,0.04049746549535265,-0.005652253827759734,-0.023801767168197093,0.003422535728306809,0.02065825485767311,1.0016318110669802
2026-03-24 18:44:10.800000-06:00,-0.011133306072919907,-0.00037407473500124916,0.021912244242427336,0.0077783058434837595,0.012879074913451586,0.9937377483646301
2026-03-24 18:44:10.900000-06:00,-0.017337872770008107,-0.10995738605945966,-0.0054220462645245835,0.041005873565386756,0.0009503755104954286,0.9793481066419217
2026-03-24 18:44:11-06:00,0.017122086543315,-0.13749979860604794,-0.004574921609316128,0.007338913900261558,-0.029701202755273205,0.9880779527157592
2026-03-24 18:44:11.100000-06:00,0.16232571775274943,0.010817758357849011,-0.0516822972166846,0.05532227621053061,0.08251224220299491,1.0432373134556654
2026-03-24 18:44:11.200000-06:00,0.007101250070105491,-0.02816349110042675,-0.1034844110883941,0.027485751607327677,-0.019294509338051224,1.0699073995706998
2026-03-24 18:44:11.300000-06:00,-0.05501227228462319,0.00531087374383709,0.10106780093100091,0.07904627370202873,-0.04441187357558391,0.969604141067541
2026-03-24 18:44:11.400000-06:00,-0.31118652139109687,-1.071120209245767,0.118817159784432,-0.15308445799533993,0.06254612941218454,1.0631798524470641
2026-03-24 18:44:11.500000-06:00,0.2991100324779614,-0.0793480709518541,0.016724079068795156,-0.1589930302396843,0.050617069029689044,1.0880469691484862
2026-03-24 18:44:11.600000-06:00,0.21065266936211652,0.08129454400840246,-0.06419360637934464,0.004555337449587798,-0.04298654382485354,1.0127436209103007
2026-03-24 18:44:11.700000-06:00,0.3981616556112434,0.05639476273753015,-0.026738162369412594,0.03658532730341149,-0.03480076274772732,1.0046291852977318
2026-03-24 18:44:11.800000-06:00,0.3571817695135444,-0.15638709447160856,0.049131491385947294,0.0027792467356334825,-0.038690908720103195,1.0087914996456486
2026-03-24 18:44:11.900000-06:00,0.28337770798386813,-0.11795379665838998,0.009533485339030149,0.05925930873437919,0.039629792028878376,0.9552425594876947
2026-03-24 18:44:12-06:00,0.27999286198650913,-0.0880942319752413,-0.10493583435729838,-0.06502885287024618,0.49740424099972985,0.48234283878796536
2026-03-24 18:44:12.100000-06:00,0.16429563612446657,0.042093336664406296,-0.08912296247954195,0.06799237252272693,0.1618906741853742,1.0167499298945106
2026-03-24 18:44:12.200000-06:00,0.13377194046896748,-0.07413027894337007,0.0452768835433099,0.06819905880193541,0.040580279708157224,1.0216741139940755
2026-03-24 18:44:12.300000-06:00,0.1285798616245099,0.23762140996160772,0.04887465954224939,0.06601014617631913,-0.10842340656595272,0.9050433450770652
2026-03-24 18:44:12.400000-06:00,0.5130611370855491,0.14690181662443344,0.047028412352842205,0.2247948687880163,-0.09187981624713842,0.8724855909000526
2026-03-24 18:44:12.500000-06:00,-0.05192187954092377,0.04526538420357615,-0.1346028970137611,0.21570688257457948,-0.1832473862124171,1.1797769370784112
2026-03-24 18:44:12.600000-06:00,-0.08492866167345628,-0.12352058042246843,0.08538670188086656,0.019719661658160532,-0.02043941611049644,0.9764403236579262
2026-03-24 18:44:12.700000-06:00,-0.1620184874549413,-0.4292164602591099,-0.037028818199894974,0.3949774795674364,0.015758449623469818,0.8189268159871107
2026-03-24 18:44:12.800000-06:00,1.116485650043593,-1.0050257733272832,-0.34626361703537906,-0.1952636731197707,-0.12103419618320221,1.216977673313517
2026-03-24 18:44:12.900000-06:00,-0.5272151040365466,0.26029775713418957,0.013854590507461776,0.4270531017217908,-0.5003937634156415,1.3577914863893379
2026-03-24 18:44:13-06:00,-0.2774885511362188,-0.21065000790280067,0.09873054916816651,0.06191455797851457,-0.029750985300790803,1.0724084228559192
2026-03-24 18:44:13.100000-06:00,-0.1936707234376673,0.5322938312267695,-0.11587171970040737,0.8515557300403298,-0.3501478282593954,0.944983801807957
2026-03-24 18:44:13.200000-06:00,0.03217361994157026,-0.3010654402879679,-0.1056197682185048,0.0320593852130952,-0.04022957890818988,1.1062637190070004
2026-03-24 18:44:13.300000-06:00,-0.021359361249764192,0.027166751133159642,0.04142237155399652,0.06405936277933852,-0.06846375061820295,0.9674566544130769
2026-03-24 18:44:13.400000-06:00,0.10609393625753952,-0.03559705913844177,-0.00797149281354999,0.03725606603682196,-0.02241394359949626,0.9975134872764909
2026-03-24 18:44:13.500000-06:00,0.057240647927681736,0.08476257437555128,-0.035859901189498965,0.0403593541117507,0.018998424538450957,1.0333929017554415
2026-03-24 18:44:13.600000-06:00,0.05899027700590926,0.2568419184940831,-0.024144663060270327,0.03147272514059337,-0.08274791085640867,1.0322307067143215
2026-03-24 18:44:13.700000-06:00,0.04222986442872949,0.11963540046804975,0.03207074077284292,-0.015145865305685428,-0.08248639953500941,0.9241043037122771
2026-03-24 18:44:13.800000-06:00,0.05363594499650747,0.22405622715198362,0.05940114106244233,0.0062050547332677414,-0.008543233418139735,0.9816248973910561
2026-03-24 18:44:13.900000-06:00,-0.030873035134322116,0.19193438126169488,-0.0045186151234111556,-0.008593966339167812,-0.08744137906420645,1.003027586076795
2026-03-24 18:44:14-06:00,-0.11035025212483365,0.22094884593617595,0.07152520993407535,-0.004207756981232142,-0.16629284618090784,0.9563247694166714
2026-03-24 18:44:14.100000-06:00,-0.0288558100880525,-0.11251773031565315,-0.01714360561455747,-0.0008511917933239161,0.025104729953653895,0.9896666384545183
2026-03-24 18:44:14.200000-06:00,0.016768082882533793,0.16816960939770462,0.0655159815023479,-0.02006208297430825,-0.09381060810776361,0.9970429963341203
2026-03-24 18:44:14.300000-06:00,0.017286302661969177,0.08082186067617382,-0.02351585913640234,0.0025386977204244054,-0.004693855699958707,1.0053718446156434
2026-03-24 18:44:14.400000-06:00,0.012263209148893865,0.1767920849627549,0.0038281564040727467,-0.010677209138696702,0.004804923189876252,1.0015738922057993
2026-03-24 18:44:14.500000-06:00,0.029444050720684435,0.29777960873488907,-0.004088002222981345,0.012279950849678537,0.012649396073072892,1.0281560580830356
2026-03-24 18:44:14.600000-06:00,0.06894150703859116,0.025307161976821854,-0.04181622674409712,-0.0749195072731259,-0.15267517245950454,0.8659871719700409
2026-03-24 18:44:14.700000-06:00,0.11690114361173286,0.40550785436413045,0.16638082321689873,-0.0030141383652929495,-0.05902786374551961,0.9610821738310229
2026-03-24 18:44:14.800000-06:00,0.031243125838079266,-0.01443173866712894,-0.07372378539052582,-0.01343112581768494,0.008697738779297724,1.005010820208736
2026-03-24 18:44:14.900000-06:00,0.1533905156195031,-0.17321219784533964,0.09055289013067663,0.0028304874753356307,0.08604319823793039,1.0758891670448114
2026-03-24 18:44:15-06:00,0.10326796612502742,-0.38149027445661876,-0.028050422927299336,0.008606037739697035,0.16201226718604217,0.9776983659047689
2026-03-24 18:44:15.100000-06:00,0.012794001009519053,-0.1499993167901373,0.06154710732003284,0.04100800069340703,-0.010369687915853024,1.0097959099182696
2026-03-24 18:44:15.200000-06:00,0.028725808507492366,0.17516748328940057,-0.036884114350976126,-0.0065828075846491915,0.015335512126975067,1.0112981599220936
2026-03-24 18:44:15.300000-06:00,0.04587227034716239,0.3742507890054198,0.03578657645577236,-0.00012227111194954693,-0.04369177038030317,0.9675414713485238
2026-03-24 18:44:15.400000-06:00,-0.6036370931969633,-0.19176853461681617,0.13643349155929907,-0.09377592755936018,0.4130155455736668,0.4998575354478849
2026-03-24 18:44:15.500000-06:00,0.38542695007979283,-0.07713311885302321,0.030648977989425542,-0.04608393284149024,-0.02534688196274978,0.8841681104148716
2026-03-24 18:44:15.600000-06:00,0.018800197824945318,-0.018461648983088007,-0.028650636047987846,-0.0037331973711716036,-0.1284263606838217,1.0624787016973176
2026-03-24 18:44:15.700000-06:00,0.1318801833449751,-0.10195490814906212,0.04951960659348504,-0.016529181728724893,0.024606904498478077,1.0073664350211338
2026-03-24 18:44:15.800000-06:00,0.08409395971101243,-0.07594704613706006,-0.024774148154568586,-0.009246956911891426,0.022450041553435676,1.0107171562154253
2026-03-24 18:44:15.900000-06:00,0.06448817893980106,-0.043136567533255496,-0.02280692387308612,0.019081822028929347,0.008671566742975426,1.020217915394146
2026-03-24 18:44:16-06:00,0.11941618187658376,0.03240590517658936,0.01918473790744036,0.0668168130809196,0.11997210362356156,1.0999822559181782
2026-03-24 18:44:16.100000-06:00,0.04920849321633789,-0.017148811265824723,-0.005214519739156593,-0.0029094940678009275,0.0033018105061361435,0.9866435500400238
2026-03-24 18:44:16.200000-06:00,0.06485687263234642,0.0015215350807870171,0.008193703252384861,0.010112126975062839,0.0021384650211846044,0.9905592857907645
2026-03-24 18:44:16.300000-06:00,0.08154005190355525,-0.0971695288401238,-0.01936766072002162,0.03204194602642087,-0.01592447369896957,0.9867666195897683
2026-03-24 18:44:16.400000-06:00,0.10410248147940428,-0.013068763543105955,-0.013186401064583728,-3.648544610034657e-05,-0.01316123650787986,1.0078523675261175
2026-03-24 18:44:16.500000-06:00,0.060104790116910466,-0.00925460274405633,-0.00347718945817379,0.021147207252221703,-0.00032239714887346947,1.0016201842627197
2026-03-24 18:44:16.600000-06:00,0.07885965135902678,0.0064680099728245625,0.007155681093951554,0.02520634467427715,-0.012690010044204699,0.9959893276501148
2026-03-24 18:44:16.700000-06:00,0.02712215690373369,-0.0346530364599532,-0.006302429983735527,0.02582584266798551,-0.012987962250105796,1.0043844457587454
2026-03-24 18:44:16.800000-06:00,-0.06898876374704921,-0.15555475111276532,0.1491090433532348,0.0057927589951716416,-0.45127326864933487,1.0583249937542383
2026-03-24 18:44:16.900000-06:00,-0.09193682858060602,-0.06375738911860829,-0.003114163654255021,0.02623982705613028,-0.005599608428974217,0.9927782181478896
2026-03-24 18:44:17-06:00,-0.05817092177247073,0.008476939117843505,0.001776035037449078,0.017422922200751534,-0.009574939148434993,1.0047850230200934
2026-03-24 18:44:17.100000-06:00,-0.049803831073812165,0.00025216939525729993,-0.02234159269475305,-0.0014971738565157263,-0.011842170058072837,0.9835185491477723
2026-03-24 18:44:17.200000-06:00,-0.0808196274976674,-0.03642362070635742,-0.006967409869833225,0.023601624407927277,0.0038496193909235083,0.9712554185170268
2026-03-24 18:44:17.300000-06:00,-0.032895783983317446,-0.02369316637179873,0.004870262831853895,0.005628782509827517,-0.012113834999719582,1.0091327861196229
2026-03-24 18:44:17.400000-06:00,-0.05524137702477401,-0.07167654601724341,-0.0032082021893307094,0.008454376367057054,-0.014821455848837269,0.9990331780985354
2026-03-24 18:44:17.500000-06:00,-0.1297196596187281,-0.07281179607715173,0.01832691591929966,0.06536465561634199,-0.029302208195459197,0.972862022199222
2026-03-24 18:44:17.600000-06:00,-0.07715577286841073,0.06667783595825282,-0.03726639576205942,0.006212773984999974,0.021955167156980215,0.9936244793074089
2026-03-24 18:44:17.700000-06:00,-0.03990896993366746,0.10627638388236554,-0.034023378013898736,0.028379969714428476,0.02664262515741868,1.0013613578541092
2026-03-24 18:44:17.800000-06:00,0.06457245848480368,0.12343106973329322,0.03865684204086003,0.0329055385886108,-0.02955206925912518,0.9821782035659478
2026-03-24 18:44:17.900000-06:00,0.0750760820463665,0.39668326084850586,0.12250002804219587,0.0005029219968082829,-0.021289257799554366,1.0056339422738652
2026-03-24 18:44:18-06:00,0.05579322704491341,-0.08215396695099754,-0.04157738575354479,0.011794777013557127,-0.036491034145197394,0.9688384789912968
2026-03-24 18:44:18.100000-06:00,0.09966543111052195,0.03232624086716667,0.004571712358450644,0.015990577822192084,-0.04885724176961552,1.0121153316372056
2026-03-24 18:44:18.200000-06:00,0.12350011471807397,-0.10677034461309418,-0.009107248652699955,0.01582389501001871,-0.0030296584460544557,0.995172214772629
2026-03-24 18:44:18.300000-06:00,0.11333471674832894,-0.05327185124379885,-0.011890866911738464,0.0441062850208787,-0.013035148598145144,0.9955769370784111
2026-03-24 18:44:18.400000-06:00,0.1327561399662474,-0.03633012088735705,0.0024225377677392383,0.022183854833199915,-0.028146877883884914,1.0016984413637686
2026-03-24 18:44:18.500000-06:00,0.0995568007423534,-0.05942319242554798,-0.01757081470226836,0.03256919539292214,-0.004443805988793314,1.0089427918810197
2026-03-24 18:44:18.600000-06:00,0.08406113912498152,-0.0332451713888025,-0.056814936803087704,0.04056185649533734,0.001891171806886141,0.9949949473061648
2026-03-24 18:44:18.700000-06:00,0.1101033788296717,-0.03949266569113816,-0.010659321990689991,0.044165622307311886,0.04699566620609485,0.9825113815625112
2026-03-24 18:44:18.800000-06:00,0.07647415784187261,-0.04480645990220922,-0.02079408972482958,0.04406184578831711,-0.01942654525245624,0.9907550855796832
2026-03-24 18:44:18.900000-06:00,0.09709702089908379,-0.11064979376239592,0.016709588901408737,0.047899976036669005,-0.021781209689343453,0.9988184456465766
2026-03-24 18:44:19-06:00,0.04712281564040728,-0.07865903239128551,0.012160826581962242,0.07121718833648596,-0.031201970091723465,0.998609212116268
2026-03-24 18:44:19.100000-06:00,0.0352417849112592,-0.17926427475233642,0.004787116089592267,0.06540821279437932,-0.0057487317279601175,0.9939048939240209
2026-03-24 18:44:19.200000-06:00,-0.030292080374031905,-0.19972531904371016,0.020879765261327773,0.05438708019558157,-0.024876690816945667,1.0053232704338384
2026-03-24 18:44:19.300000-06:00,-0.035809017350471366,-0.02858153191966676,-0.014345107656539187,0.05032701789092096,-0.023817472837309377,1.0044970963580837
2026-03-24 18:44:19.400000-06:00,-0.012174916000876956,-0.10621448710823779,-0.008390532954678714,0.0429799166891854,-0.04152751449271667,1.0023855261480732
2026-03-24 18:44:19.500000-06:00,-0.05276155465933831,-0.04681676209510893,0.05081455746865648,0.053371554679732626,-0.06829024182569991,0.9808785283455614
2026-03-24 18:44:19.600000-06:00,-0.0273281212238634,-0.05534102573253864,-0.016116863556872123,0.053497122870705086,-0.026398974165489746,1.000107828871225
2026-03-24 18:44:19.700000-06:00,-0.023497896835310735,-0.03694128372074052,0.006357569608377989,0.04332289721770432,-0.02967071527993759,0.9923954194347713
2026-03-24 18:44:19.800000-06:00,-0.058093117425420504,-0.07759775254546661,-0.01097819744765032,0.06272911748660348,-0.06026225061565367,0.9879542290180643
2026-03-24 18:44:19.900000-06:00,-0.02254461309417589,-0.05941861899833277,0.004936585888147329,0.03834361377228717,-0.03604638281166351,0.9993064532740539
2026-03-24 18:44:20-06:00,-0.015633387548245323,-0.06494177522395518,-0.007255457266242805,0.04216838675796526,-0.03735522732023679,0.9988104735052237
2026-03-24 18:44:20.100000-06:00,-0.03293024019415397,-0.0775154859202684,0.0003914220554419705,0.03659024029612559,-0.03161352347641651,0.9987886241377026
2026-03-24 18:44:20.200000-06:00,-0.027831232887887303,0.005343698204789607,-0.012509946209969766,0.040031232887887305,-0.036209698316958396,0.9994899036878038
2026-03-24 18:44:20.300000-06:00,-0.02459669509975374,-0.019031724391101956,-0.008532514671167016,-0.00590330642982058,0.03214672492645297,1.0070414856245506
2026-03-24 18:44:20.400000-06:00,-0.025504955310936966,-0.049594596523787435,-0.00469006286550453,-0.021160045479343102,0.013909597059138443,0.9933170659705405
2026-03-24 18:44:20.500000-06:00,-0.032321375801114556,0.06557025079920259,-0.0003934642614960257,0.045253376025452124,-0.0026792472454915807,1.000610459871618
2026-03-24 18:44:20.600000-06:00,-0.03478608291312528,0.11395509169798046,-0.04472159911896519,0.039727082846843724,0.04921991709707188,0.9106775575757267
2026-03-24 18:44:20.700000-06:00,-0.015704584134235443,0.05571206273294143,-0.004596218892282278,0.03235758388440497,-0.03930306169792947,1.0101202255612265
2026-03-24 18:44:20.800000-06:00,-0.03033275073547032,0.06661675495709544,-0.0073343251773031574,0.03539575084254052,-0.03843475600740314,1.0046843886546375
2026-03-24 18:44:20.900000-06:00,-0.01459052887581386,0.031160280014072082,-0.011643663228523502,0.030755529156235823,-0.030306280024269244,0.9994777350063478
2026-03-24 18:44:21-06:00,-0.01731823201602994,0.05617630893322389,-0.008397923857790377,0.019026231995635617,-0.017624309014801182,0.9892779389495904
2026-03-24 18:44:21.100000-06:00,-0.010501265977678413,-0.15029384142393173,0.06317717059342386,0.0025102659929741563,-0.08114016509205486,0.9735178271886935
2026-03-24 18:44:21.200000-06:00,-0.06830159126715035,0.07305393075107199,-0.02453744652863108,0.05866359154247374,-0.11361893103149394,0.996694503219754
2026-03-24 18:44:21.300000-06:00,0.006444761462884879,-0.12347289849234959,0.0258581676719369,0.027044240387900046,-0.03036909648044948,1.0245009253924633
2026-03-24 18:44:21.400000-06:00,0.011139337082489945,-0.14164496540612748,-0.019686536176981947,0.01509066296849587,-0.06612104031448048,1.0061175804173699
2026-03-24 18:44:21.500000-06:00,-0.02743980870123845,-0.14331741216419472,-0.013710468916500539,0.03915180821177467,-0.05566459494322731,0.9972744790524797
2026-03-24 18:44:21.600000-06:00,0.03521023999021073,-0.09827879041262817,-0.013339371752841184,0.020970759637592856,-0.017194220248504852,0.9956224143820775
2026-03-24 18:44:21.700000-06:00,0.024361917678310127,-0.11496780246057522,-0.013058423620706357,0.038041084366220876,-0.04692619803908573,0.9908884675194896
2026-03-24 18:44:21.800000-06:00,0.039743831991556754,-0.025170073368581524,-0.048293216337893165,0.03711616607098245,-0.024300928451611917,1.0128862221043886
2026-03-24 18:44:21.900000-06:00,0.06703421249866162,0.01963545043414418,0.007868507594336497,0.039959786471425014,-0.02726045081653776,0.9850285571525444
2026-03-24 18:44:22-06:00,0.09383495893092952,0.08742362580493848,0.0019315342140282363,0.036217036398770226,-0.029168625371559096,0.9957234244109864
2026-03-24 18:44:22.100000-06:00,0.09807918402308638,-0.20725630057155095,0.019934906415544556,0.05088281625223702,-0.051688701034502085,0.9941291215654683
2026-03-24 18:44:22.200000-06:00,0.03744284439640448,0.19424898410772282,0.04587340223215879,-0.01749584414657401,-0.008442974920079739,0.9869176120285726
2026-03-24 18:44:22.300000-06:00,0.009508328532169498,0.008747719149760622,0.006879886607557117,-0.19470432308688493,-0.051447720679334945,0.9782700881544667
2026-03-24 18:44:22.400000-06:00,-0.2725045351878572,0.08629707392432687,-0.05639891298251697,0.01587753208282135,-0.014317073618411988,0.9948229415753596
2026-03-24 18:44:22.500000-06:00,-0.3406943655580652,0.2523729306134103,-0.0033680773760662412,-0.020974634559202177,-0.1048749267078972,1.0235931287442706
2026-03-24 18:44:22.600000-06:00,-0.2109961097826475,0.12171251140807514,-0.01598684362142016,-0.007017901118118851,-0.047719506661296165,1.0285868650354606
2026-03-24 18:44:22.700000-06:00,-0.19651795465322003,0.16162656972564535,0.2712114330581799,-0.06645304971626399,0.08944943482228897,0.826971636593536
2026-03-24 18:44:22.800000-06:00,-0.06579644424956535,0.30123409115243227,-0.047030453824700585,0.019558442485456292,-0.04418008188321189,1.0287644302590588
2026-03-24 18:44:22.900000-06:00,-0.029980790585979925,0.24998882391030575,-0.06492266982098882,0.10330279147313302,-0.0189818031641794,1.0287837232898085
2026-03-24 18:44:23-06:00,0.07301782973798392,0.10615943262989909,-0.03063818429331117,0.012565167513880893,-0.010023427979993154,0.9935232673746897
2026-03-24 18:44:23.100000-06:00,0.05517474366883696,-0.050149908480469886,0.022074551452330816,-0.007716743230358992,-0.011216093161273222,0.996320415228442
2026-03-24 18:44:23.200000-06:00,0.11336319742215743,-0.04785540628043216,-0.011072916847241413,0.004000805575808237,-0.10238760229028263,0.9853649533734762
2026-03-24 18:44:23.300000-06:00,0.021063986172648156,0.08860126546782031,-0.008870548046478665,0.010229013985407863,0.05706673532755834,0.958457511994412
2026-03-24 18:44:23.400000-06:00,0.03912021944292903,0.26080888988594475,0.021288497091259503,0.002969780710028402,0.010031101344495811,1.000827516022291
2026-03-24 18:44:23.500000-06:00,0.10774877251660864,0.370089021225393,0.04877488235024193,-0.050164770844274044,-0.0983950176665834,0.9914581228044235
2026-03-24 18:44:23.600000-06:00,-0.047612110149745326,0.32713186460208127,-0.08614533301382225,0.09025111021602689,0.4006591751515553,1.2015912804066629
2026-03-24 18:44:23.700000-06:00,0.04871951379930965,-0.03269859024233556,-0.10370535300026004,-0.017304514793532958,-0.007134410833465048,1.0058953975108726
2026-03-24 18:44:23.800000-06:00,-0.029369983633554784,-0.4636899960740926,0.000463871607531624,-0.1703440165601913,-0.18358102919957378,1.025434166968333
2026-03-24 18:44:23.900000-06:00,0.14600264106499164,-0.2095263112275854,0.06337614169976497,0.05151535947545797,-0.025628680538206224,0.8537588636282522
2026-03-24 18:44:24-06:00,0.06599253159845615,0.6482159554995846,-0.09035518755130448,-0.06568753158316042,0.08799304553542753,1.0922802078181644
2026-03-24 18:44:24.100000-06:00,-0.2302533892817629,0.4429956203188653,0.17635241392320516,0.019071385233489536,0.07812739314648738,0.9309195902780257
2026-03-24 18:44:24.200000-06:00,0.17587167891175887,-0.5344563128081455,-0.740437009580234,-0.08510367556708968,-0.31448068402563556,0.9677230144850689
2026-03-24 18:44:24.300000-06:00,0.0665627711807804,0.3521035419842658,0.05352135030820923,-0.03008476900878486,-0.17990054707774827,0.9665206619997655
2026-03-24 18:44:24.400000-06:00,0.047147407116599455,-0.11411468748247362,-0.03440906221798474,-0.03549640702992357,0.012061682633723038,0.9811290940331308
2026-03-24 18:44:24.500000-06:00,0.07089991995227729,-0.4659237762130799,-0.0505244675806723,-0.17264791748456407,-0.18622723356090004,1.1332134592342953
2026-03-24 18:44:24.600000-06:00,-0.11376601591777008,0.17476290068473946,0.02682967170236523,0.0890000152957432,-0.09271790060826074,1.0620203433384487
2026-03-24 18:44:24.700000-06:00,-0.06106535361208976,0.25732716065119077,0.03415689863510985,-0.02823864928390429,-0.0692031529625305,0.9728920936303428
2026-03-24 18:44:24.800000-06:00,-0.07242023524853033,0.12562145075025621,-0.09872296451897437,-0.012247765546848314,0.03846854940270123,1.0140279871311815
2026-03-24 18:44:24.900000-06:00,-0.09225670845803614,-0.0007242728760585929,-0.021832209776019334,-0.040174294993703244,-0.03593672756751796,0.9419562582533283
2026-03-24 18:44:25-06:00,-0.18275058251288667,-0.060594311003247796,-0.02191457837283884,0.01689157867365512,-0.01199568660041911,1.010175605329037
2026-03-24 18:44:25.100000-06:00,-0.27552313991016303,-0.2401024202964315,0.04855111582446605,-0.03295386293994384,0.3725334237481709,1.0369439309040296
2026-03-24 18:44:25.200000-06:00,-0.23567843249223744,0.1152719328210959,-0.10772634895708524,-0.0025875604819178702,-0.08629693320348948,1.0389524047457592
2026-03-24 18:44:25.300000-06:00,-0.017537999214818516,0.22580226682914148,0.047372183161426176,0.037423999021072435,0.07199973487378464,0.9666918448195867
2026-03-24 18:44:25.400000-06:00,-0.026549480199660434,0.0829180709008683,-0.04242003742358502,-0.027374520350986323,-0.023992066607863044,0.9639470624525197
2026-03-24 18:44:25.500000-06:00,-0.06682155476130992,0.36107345525740187,0.2673986529548827,0.08908655453187378,0.004255561277296541,0.9358263015402815
2026-03-24 18:44:25.600000-06:00,-0.019250618712812227,-0.043762836442618025,-0.11459301596365733,-0.005698381200511898,0.031379836131604576,1.0291050052770314
2026-03-24 18:44:25.700000-06:00,-0.05361755849347127,-0.12083942018936131,0.08839904962448951,-0.006589443897763251,0.03787941855781536,0.9848350313307809
